t, ax, ay, az, da
0, 14234, -920, 16993, 0
1, 17294, -834, 17090, 31928.5
2, 17294, -834, 17090, 33550.0
3, 19784, -878, 17190, 34823.0
4, 19784, -878, 17190, 36096.0
5, 21144, -836, 17226, 36815.0
6, 22348, -850, 17244, 38138.0
7, 23398, -815, 17259, 39292.0
8, 24618, -686, 17286, 40530.0
9, 25780, -638, 17311, 41835.5
10, 26464, -660, 17307, 42782.0
11, 27107, -609, 17290, 43449.5
12, 28098, -525, 17335, 44348.0
13, 29008, -460, 17426, 45441.0
14, 29601, -410, 17451, 46308.0
15, 30218, -346, 17427, 46970.5
16, 30893, -254, 17428, 47683.0
17, 31334, -152, 17440, 48344.5
18, 31742, -36, 17468, 48898.0
19, 32346, 94, 17512, 49563.0
20, 32764, 213, 17535, 50232.0
21, 32764, 339, 17522, 50568.5
22, 32764, 589, 17496, 50737.0
23, 32764, 956, 17487, 51028.0
24, 32764, 1300, 17481, 51376.0
25, 32764, 1660, 17465, 51717.0
26, 32764, 2046, 17465, 52082.0
27, 32764, 2406, 17463, 52454.0
28, 32764, 2406, 17463, 52633.0
29, 32764, 3092, 17466, 52977.5
30, 32764, 3092, 17466, 53322.0
31, 32520, 3410, 17432, 53342.0
32, 31809, 3460, 17363, 52997.0
33, 31107, 3512, 17316, 52283.5
34, 30224, 3455, 17270, 51442.0
35, 29251, 3346, 17228, 50387.0
36, 28407, 3158, 17232, 49311.0
37, 28407, 3158, 17232, 48797.0
38, 26090, 2420, 17139, 47223.0
39, 26090, 2420, 17139, 45649.0
40, 23856, 1876, 17087, 44234.0
41, 23856, 1876, 17087, 42819.0
42, 21230, 1208, 17035, 41146.0
43, 21230, 1208, 17035, 39473.0
44, 18424, 638, 16957, 37746.0
45, 18424, 638, 16957, 36019.0
46, 15689, 292, 16888, 34444.0
47, 15689, 292, 16888, 32869.0
48, 14088, 102, 16814, 31936.5
49, 12609, -103, 16761, 30135.5
50, 11170, -222, 16733, 28474.0
51, 9602, -318, 16680, 26822.5
52, 8086, -426, 16622, 25123.0
53, 6649, -508, 16595, 23509.0
54, 5094, -573, 16576, 21916.5
55, 3529, -611, 16539, 20277.0
56, 2074, -588, 16493, 18718.0
57, 594, -585, 16432, 17210.0
58, -916, -637, 16367, 15627.5
59, -2336, -640, 16314, 14076.0
60, -3727, -628, 16268, 12625.5
61, -5195, -652, 16232, 11149.0
62, -6716, -662, 16188, 9597.5
63, -8154, -656, 16120, 8060.0
64, -9479, -669, 16058, 6610.0
65, -10934, -704, 16000, 5136.0
66, -12432, -677, 15938, 3595.5
67, -13658, -593, 15902, 2240.0
68, -14859, -570, 15895, 1058.5
69, -16342, -650, 15835, -345.5
70, -17820, -731, 15726, -1991.0
71, -19038, -762, 15668, -3478.5
72, -20265, -770, 15675, -4746.0
73, -21534, -771, 15685, -5990.0
74, -22622, -828, 15669, -7200.5
75, -23832, -933, 15616, -8465.0
76, -25258, -998, 15549, -9928.0
77, -26312, -1041, 15528, -11266.0
78, -26991, -1090, 15539, -12183.5
79, -28022, -1141, 15511, -13097.0
80, -29252, -1224, 15469, -14329.5
81, -29891, -1268, 15491, -15337.5
82, -29891, -1268, 15491, -15668.0
83, -31246, -1267, 15533, -16324.0
84, -31246, -1267, 15533, -16980.0
85, -32555, -1312, 15466, -17690.5
86, -32555, -1312, 15466, -18401.0
87, -32764, -1351, 15516, -18500.0
88, -32764, -1351, 15516, -18599.0
89, -32764, -1356, 15508, -18605.5
90, -32764, -1356, 15508, -18612.0
91, -32764, -1334, 15523, -18593.5
92, -32764, -1334, 15523, -18575.0
93, -32764, -1323, 15525, -18568.5
94, -32764, -1273, 15533, -18533.0
95, -32764, -1244, 15554, -18479.0
96, -32764, -1256, 15565, -18454.5
97, -32764, -1204, 15560, -18431.5
98, -31670, -1135, 15621, -17796.0
99, -31670, -1135, 15621, -17184.0
100, -29931, -1048, 15801, -16181.0
101, -29931, -1048, 15801, -15178.0
102, -28808, -1026, 15812, -14600.0
103, -28808, -1026, 15770, -14043.0
104, -27925, -924, 15774, -13569.5
105, -26829, -775, 15831, -12424.0
106, -25552, -632, 15892, -11032.5
107, -24157, -536, 15946, -9519.5
108, -23060, -474, 15988, -8146.5
109, -22376, -409, 15970, -7180.5
110, -21451, -312, 15923, -6327.5
111, -19803, -194, 15957, -4940.0
112, -17831, -90, 16062, -2949.5
113, -16222, -62, 16147, -998.0
114, -15108, -63, 16162, 427.0
115, -14049, -58, 16112, 1498.0
116, -12506, -86, 16099, 2756.0
117, -10551, 62, 16186, 4602.0
118, -8769, 221, 16318, 6733.5
119, -7200, 38, 16432, 8520.0
120, -5532, -181, 16516, 10036.5
121, -3836, -243, 16577, 11650.5
122, -2280, -328, 16612, 13251.0
123, -852, -450, 16602, 14652.0
124, 570, -578, 16584, 15938.0
125, 570, -578, 16584, 16576.0
126, 3771, -676, 16695, 18183.0
127, 3771, -676, 16695, 19790.0
128, 6737, -794, 16849, 21291.0
129, 6737, -794, 16849, 22792.0
130, 9851, -832, 16956, 24383.5
131, 11506, -852, 17021, 26825.0
132, 12872, -946, 17067, 28334.0
133, 14126, -1011, 17082, 29595.0
134, 15564, -962, 17069, 30934.0
135, 17079, -922, 17073, 32450.5
136, 17079, -922, 17073, 33230.0
137, 19598, -886, 17171, 34556.5
138, 19598, -886, 17171, 35883.0
139, 22208, -760, 17250, 37290.5
140, 22208, -760, 17250, 38698.0
141, 24416, -726, 17305, 39846.5
142, 24416, -726, 17305, 40995.0
143, 26305, -663, 17316, 41976.5
144, 26305, -663, 17316, 42958.0
145, 28252, -515, 17344, 44019.5
146, 28252, -515, 17344, 45081.0
147, 29169, -438, 17433, 45622.5
148, 29415, -456, 17425, 46274.0
149, 30004, -437, 17406, 46678.5
150, 30864, -341, 17431, 47463.5
151, 31245, -245, 17433, 48193.5
152, 31640, -167, 17435, 48670.5
153, 32466, -76, 17483, 49390.5
154, 32764, 57, 17512, 50103.0
155, 32764, 227, 17495, 50409.5
156, 32764, 451, 17479, 50590.0
157, 32764, 776, 17482, 50858.0
158, 32764, 1148, 17474, 51204.0
159, 32764, 1548, 17460, 51579.0
160, 32764, 1963, 17476, 51987.5
161, 32764, 2298, 17473, 52369.0
162, 32764, 2648, 17429, 52688.0
163, 32764, 3088, 17408, 53050.5
164, 32764, 3395, 17416, 53417.5
165, 32764, 3526, 17402, 53633.5
166, 32078, 3629, 17350, 53374.5
167, 31277, 3623, 17295, 52626.0
168, 30272, 3464, 17261, 51596.0
169, 29347, 3387, 17252, 50491.5
170, 28676, 3288, 17261, 49605.5
171, 27618, 2918, 17223, 48492.0
172, 26192, 2552, 17146, 46824.5
173, 25080, 2274, 17114, 45179.0
174, 24080, 1928, 17120, 43798.0
175, 22774, 1586, 17105, 42296.5
176, 21382, 1262, 17071, 40590.0
177, 20024, 949, 17045, 38866.5
178, 18615, 650, 17017, 37150.0
179, 17226, 650, 17017, 35587.5
180, 15774, 286, 16940, 33946.5
181, 15774, 286, 16940, 33000.0
182, 12662, -50, 16797, 31204.5
183, 12662, -50, 16797, 29409.0
184, 9849, -262, 16725, 27860.5
185, 9849, -262, 16725, 26312.0
186, 6816, -428, 16603, 24651.5
187, 6816, -428, 16603, 22991.0
188, 3773, -588, 16540, 21358.0
189, 3773, -588, 16540, 19725.0
190, 2277, -592, 16482, 18946.0
191, 799, -632, 16439, 17386.5
192, -717, -647, 16405, 15823.5
193, -2201, -630, 16363, 14286.5
194, -3612, -664, 16298, 12777.0
195, -5021, -688, 16233, 11273.0
196, -6489, -681, 16190, 9772.0
197, -9251, -665, 16144, 7624.0
198, -9251, -665, 16144, 6228.0
199, -12280, -711, 16004, 4620.5
200, -12280, -711, 16004, 3013.0
201, -13467, -616, 15985, 2457.5
202, -14610, -561, 15982, 1356.5
203, -16120, -612, 15906, -7.5
204, -17616, -654, 15790, -1653.0
205, -18808, -672, 15731, -3114.5
206, -20024, -726, 15710, -4394.5
207, -21310, -787, 15664, -5736.5
208, -22434, -818, 15606, -7039.5
209, -23633, -856, 15574, -8280.5
210, -25025, -899, 15570, -9634.5
211, -26157, -942, 15587, -10933.0
212, -26983, -1016, 15600, -11955.5
213, -27971, -1128, 15570, -12964.0
214, -29061, -1218, 15529, -14139.5
215, -29795, -1235, 15538, -15121.0
216, -30335, -1262, 15564, -15762.5
217, -31092, -1318, 15530, -16456.5
218, -31915, -1316, 15483, -17314.0
219, -32476, -1272, 15492, -18002.0
220, -32764, -1274, 15506, -18394.0
221, -32764, -1308, 15462, -18571.0
222, -32764, -1362, 15400, -18668.0
223, -32764, -1430, 15392, -18764.0
224, -32764, -1430, 15392, -18802.0
225, -32764, -1452, 15486, -18766.0
226, -32764, -1452, 15486, -18730.0
227, -32764, -1331, 15535, -18645.0
228, -32764, -1331, 15535, -18560.0
229, -32764, -1306, 15589, -18520.5
230, -32697, -1278, 15612, -18422.0
231, -32312, -1226, 15603, -18149.0
232, -31870, -1186, 15606, -17692.5
233, -31022, -1160, 15682, -16975.0
234, -30131, -1092, 15762, -15980.5
235, -30131, -1092, 15762, -15461.0
236, -28842, -976, 15744, -14767.5
237, -28842, -976, 15744, -14074.0
238, -26782, -758, 15886, -12864.0
239, -26782, -758, 15886, -11654.0
240, -24319, -570, 15976, -10283.5
241, -24319, -570, 15976, -8913.0
242, -22452, -384, 15988, -7880.5
243, -22452, -384, 15988, -6848.0
244, -19922, -260, 15939, -5545.5
245, -19922, -260, 15939, -4243.0
246, -17924, -148, 16034, -3140.5
247, -16336, -71, 16111, -1167.0
248, -15312, -60, 16128, 230.0
249, -14330, -87, 16082, 1210.5
250, -12871, -118, 16085, 2380.5
251, -10926, -27, 16194, 4168.5
252, -8997, 134, 16318, 6348.0
253, -7391, 68, 16404, 8268.0
254, -5823, -123, 16462, 9798.5
255, -4128, -212, 16507, 11341.5
256, -2512, -284, 16562, 12966.5
257, -1057, -411, 16614, 14456.0
258, 345, -555, 16632, 15784.0
259, 1818, -632, 16647, 17127.5
260, 3448, -621, 16710, 18685.0
261, 5123, -633, 16786, 20406.5
262, 6582, -729, 16818, 21973.5
263, 7922, -825, 16832, 23300.0
264, 9528, -832, 16879, 24752.0
265, 11276, -832, 16938, 26478.5
266, 12728, -904, 16962, 28084.0
267, 13960, -950, 16966, 29381.0
268, 15374, -899, 16981, 30716.0
269, 16965, -838, 17037, 32310.0
270, 18310, -828, 17108, 33877.0
271, 19408, -833, 17129, 35147.0
272, 20699, -818, 17124, 36354.5
273, 22072, -762, 17156, 37735.5
274, 23138, -742, 17210, 39036.0
275, 24194, -728, 17262, 40167.0
276, 25420, -678, 17317, 41393.5
277, 26296, -695, 17348, 42504.0
278, 26296, -695, 17348, 42949.0
279, 27934, -519, 17408, 43886.0
280, 27934, -519, 17408, 44823.0
281, 29435, -450, 17486, 45647.0
282, 29435, -450, 17486, 46471.0
283, 30700, -297, 17492, 47183.0
284, 30700, -297, 17492, 47895.0
285, 31648, -124, 17492, 48455.5
286, 31648, -124, 17492, 49016.0
287, 32764, 172, 17536, 49744.0
288, 32764, 172, 17536, 50472.0
289, 32764, 352, 17520, 50554.0
290, 32764, 554, 17480, 50717.0
291, 32764, 884, 17472, 50959.0
292, 32764, 1222, 17487, 51296.5
293, 32764, 1620, 17512, 51684.5
294, 32764, 2064, 17512, 52118.0
295, 32764, 2398, 17481, 52491.5
296, 32764, 3032, 17410, 52924.5
297, 32764, 3032, 17410, 53206.0
298, 32764, 3382, 17448, 53400.0
299, 32764, 3382, 17448, 53594.0
300, 32273, 3493, 17438, 53399.0
301, 31289, 3503, 17369, 52682.5
302, 30324, 3356, 17292, 51566.5
303, 29359, 3154, 17229, 50357.0
304, 28572, 3059, 17210, 49291.5
305, 27762, 2860, 17228, 48345.5
306, 26471, 2459, 17200, 46990.0
307, 25148, 2106, 17142, 45263.0
308, 24181, 1848, 17113, 43769.0
309, 23077, 1538, 17081, 42419.0
310, 21609, 1206, 17043, 40777.0
311, 20155, 948, 17016, 38988.5
312, 18844, 707, 16973, 37321.5
313, 17468, 482, 16921, 35697.5
314, 15973, 330, 16884, 34029.0
315, 14466, 184, 16854, 32345.5
316, 13014, 10, 16813, 30670.5
317, 11532, -151, 16742, 28980.0
318, 9955, -278, 16659, 27229.5
319, 8448, -344, 16609, 25524.5
320, 7058, -386, 16592, 23988.5
321, 7058, -386, 16592, 23264.0
322, 3968, -427, 16569, 21687.0
323, 3968, -427, 16569, 20110.0
324, 1004, -534, 16501, 18540.5
325, 1004, -534, 16501, 16971.0
326, -2060, -570, 16347, 15344.0
327, -2060, -570, 16347, 13717.0
328, -4716, -560, 16280, 12360.5
329, -6212, -589, 16263, 10233.0
330, -7670, -568, 16216, 8720.0
331, -9101, -541, 16126, 7231.0
332, -9101, -541, 16126, 6484.0
333, -12012, -610, 15949, 4905.5
334, -12012, -610, 15949, 3327.0
335, -14560, -558, 15910, 2059.5
336, -14560, -558, 15910, 792.0
337, -17426, -632, 15820, -723.0
338, -17426, -632, 15820, -2238.0
339, -19980, -673, 15754, -3568.5
340, -19980, -673, 15754, -4899.0
341, -22335, -801, 15641, -6197.0
342, -22335, -801, 15641, -7495.0
343, -23465, -859, 15662, -8078.5
344, -24904, -958, 15672, -9426.0
345, -26148, -1033, 15644, -10863.5
346, -26916, -1076, 15618, -11955.5
347, -27810, -1117, 15605, -12848.0
348, -28940, -1220, 15592, -13945.0
349, -29671, -1258, 15602, -14947.5
350, -30234, -1238, 15602, -15598.5
351, -31202, -1306, 15540, -16419.0
352, -32016, -1331, 15502, -17406.5
353, -32279, -1330, 15528, -17963.0
354, -32629, -1394, 15526, -18289.0
355, -32764, -1397, 15471, -18593.5
356, -32764, -1380, 15424, -18705.0
357, -32764, -1423, 15424, -18741.5
358, -32764, -1437, 15426, -18769.0
359, -32764, -1444, 15414, -18784.5
360, -32764, -1461, 15449, -18785.0
361, -32764, -1410, 15488, -18731.0
362, -32764, -1365, 15490, -18662.5
363, -32764, -1378, 15503, -18639.0
364, -32764, -1354, 15527, -18615.0
365, -32527, -1286, 15575, -18414.5
366, -31881, -1178, 15662, -17817.5
367, -31036, -1106, 15731, -16904.0
368, -30235, -1112, 15753, -16002.5
369, -29536, -1070, 15761, -15219.5
370, -28909, -997, 15770, -14490.5
371, -28122, -907, 15808, -13678.5
372, -27038, -765, 15879, -12572.5
373, -25849, -683, 15926, -11265.0
374, -24566, -611, 15966, -9908.5
375, -23336, -611, 15966, -8596.0
376, -22583, -420, 16026, -7479.0
377, -22583, -420, 16026, -6977.0
378, -20248, -178, 15912, -5745.5
379, -20248, -178, 15912, -4514.0
380, -16706, -23, 16155, -2544.0
381, -16706, -23, 16155, -574.0
382, -14500, -110, 16138, 477.0
383, -14500, -110, 16138, 1528.0
384, -10795, 62, 16230, 3512.5
385, -10795, 62, 16230, 5497.0
386, -9112, 169, 16287, 6420.5
387, -7662, 27, 16316, 8012.5
388, -6055, -93, 16383, 9458.0
389, -4352, -135, 16496, 11122.0
390, -2786, -216, 16593, 12800.0
391, -1380, -340, 16629, 14250.0
392, 26, -513, 16622, 15522.0
393, 1652, -583, 16660, 16932.0
394, 3446, -606, 16778, 18673.5
395, 6330, -778, 16827, 20998.5
396, 6330, -778, 16827, 22379.0
397, 7760, -830, 16826, 23067.5
398, 9404, -853, 16880, 24593.5
399, 11025, -840, 16920, 26268.0
400, 12486, -879, 16928, 27820.0
401, 13780, -935, 16925, 29152.5
402, 15168, -917, 16937, 30479.0
403, 16766, -868, 16979, 32032.5
404, 18127, -871, 17032, 33582.5
405, 19223, -887, 17060, 34842.0
406, 20556, -834, 17098, 36108.0
407, 21938, -773, 17185, 37585.0
408, 22984, -766, 17268, 38918.0
409, 24011, -726, 17307, 40039.0
410, 25219, -640, 17359, 41265.0
411, 26144, -625, 17414, 42435.5
412, 26754, -659, 17397, 43212.5
413, 27734, -618, 17370, 43989.0
414, 28887, -526, 17409, 45128.0
415, 29485, -474, 17445, 46113.0
416, 29965, -400, 17448, 46734.5
417, 30800, -289, 17458, 47491.0
418, 31334, -240, 17442, 48252.5
419, 31474, -193, 17397, 48607.0
420, 31474, -193, 17397, 48678.0
421, 32763, 64, 17486, 49495.5
422, 32763, 64, 17486, 50313.0
423, 32764, 477, 17498, 50526.0
424, 32764, 477, 17498, 50739.0
425, 32764, 1102, 17531, 51068.0
426, 32764, 1102, 17531, 51397.0
427, 32764, 1776, 17429, 51683.0
428, 32764, 2135, 17453, 52160.5
429, 32764, 2472, 17484, 52536.0
430, 32764, 2847, 17492, 52911.5
431, 32764, 2847, 17492, 53103.0
432, 32764, 3342, 17482, 53345.5
433, 32764, 3342, 17482, 53588.0
434, 31369, 3556, 17387, 52950.0
435, 31369, 3556, 17387, 52312.0
436, 29693, 3337, 17285, 51313.5
437, 29693, 3337, 17285, 50315.0
438, 27908, 3000, 17234, 49228.5
439, 27908, 3000, 17234, 48142.0
440, 26718, 2673, 17186, 47359.5
441, 25413, 2310, 17113, 45706.5
442, 24320, 2011, 17080, 44123.5
443, 23186, 1690, 17067, 42677.0
444, 21859, 1367, 17049, 41109.0
445, 20484, 1093, 17021, 39436.5
446, 19105, 783, 16963, 37724.5
447, 17708, 534, 16915, 36004.0
448, 16246, 400, 16899, 34351.0
449, 14654, 247, 16864, 32655.0
450, 13118, 86, 16804, 30886.5
451, 11696, -41, 16748, 29205.5
452, 10160, -160, 16709, 27556.0
453, 8652, -246, 16696, 25905.5
454, 7333, -356, 16677, 24378.0
455, 5890, -480, 16622, 22843.0
456, 4234, -526, 16544, 21142.0
457, 2663, -562, 16492, 19422.5
458, 1223, -618, 16480, 17839.0
459, -302, -638, 16448, 16296.5
460, -1899, -646, 16380, 14671.5
461, -3349, -654, 16331, 13081.5
462, -4659, -668, 16314, 11657.5
463, -6042, -699, 16274, 10260.0
464, -7534, -680, 16199, 8759.0
465, -8944, -658, 16137, 7260.0
466, -10312, -714, 16091, 5800.0
467, -11798, -754, 16037, 4275.0
468, -13204, -714, 15977, 2772.0
469, -14427, -645, 15928, 1457.5
470, -15764, -598, 15896, 195.0
471, -17218, -625, 15860, -1224.5
472, -18511, -690, 15821, -2681.5
473, -19770, -739, 15784, -4052.5
474, -19770, -739, 15784, -4725.0
475, -22098, -795, 15751, -5933.5
476, -22098, -795, 15751, -7142.0
477, -24571, -938, 15666, -8492.5
478, -24571, -938, 15666, -9843.0
479, -26716, -1015, 15576, -10999.0
480, -26716, -1015, 15576, -12155.0
481, -28760, -1153, 15563, -13252.5
482, -28760, -1153, 15563, -14350.0
483, -30102, -1188, 15477, -15081.5
484, -30102, -1188, 15477, -15813.0
485, -30955, -1277, 15458, -16293.5
486, -31838, -1294, 15421, -17242.5
487, -32180, -1279, 15410, -17880.0
488, -32496, -1287, 15424, -18204.0
489, -32764, -1320, 15426, -18508.5
490, -32764, -1359, 15446, -18667.5
491, -32764, -1358, 15484, -18657.5
492, -32764, -1375, 15490, -18643.5
493, -32764, -1408, 15502, -18659.5
494, -32764, -1376, 15574, -18618.0
495, -32764, -1338, 15634, -18517.0
496, -32764, -1336, 15624, -18472.0
497, -32764, -1316, 15594, -18481.0
498, -32764, -1312, 15594, -18484.0
499, -32525, -1261, 15616, -18326.0
500, -31992, -1181, 15644, -17849.5
501, -31242, -1207, 15684, -17147.0
502, -30382, -1180, 15739, -16294.0
503, -29643, -1063, 15790, -15369.5
504, -29053, -1000, 15796, -14586.5
505, -28320, -933, 15764, -13873.0
506, -27258, -824, 15753, -12909.0
507, -26019, -694, 15800, -11621.0
508, -24650, -551, 15892, -10111.0
509, -23400, -449, 15968, -8595.0
510, -22716, -436, 15946, -7543.5
511, -22126, -402, 15850, -6942.0
512, -20649, -288, 15866, -5874.5
513, -18462, -165, 16045, -3826.5
514, -16743, -87, 16196, -1608.0
515, -15794, -108, 16214, -161.0
516, -14743, -160, 16180, 794.5
517, -14743, -160, 16180, 1277.0
518, -11199, -52, 16298, 3162.0
519, -11199, -52, 16298, 5047.0
520, -7869, 58, 16415, 6825.5
521, -7869, 58, 16415, 8604.0
522, -4637, -167, 16548, 10174.0
523, -4637, -167, 16548, 11744.0
524, -1669, -359, 16611, 13163.5
525, -1669, -359, 16611, 14583.0
526, 1462, -498, 16646, 16096.5
527, 3154, -566, 16697, 18447.5
528, 3154, -566, 16697, 19285.0
529, 6095, -759, 16757, 20689.0
530, 6095, -759, 16757, 22093.0
531, 9155, -778, 16882, 23676.0
532, 9155, -778, 16882, 25259.0
533, 12298, -827, 17002, 26866.0
534, 12298, -827, 17002, 28473.0
535, 14828, -948, 17019, 29686.0
536, 14828, -948, 17019, 30899.0
537, 17983, -838, 17121, 32582.5
538, 17983, -838, 17121, 34266.0
539, 19132, -896, 17146, 34824.0
540, 20401, -876, 17172, 36039.5
541, 21789, -844, 17228, 37435.0
542, 22897, -806, 17283, 38773.5
543, 23925, -724, 17311, 39943.0
544, 25130, -630, 17325, 41168.5
545, 26132, -599, 17321, 42339.5
546, 26766, -617, 17293, 43148.0
547, 27609, -569, 17298, 43890.0
548, 28767, -468, 17371, 45004.0
549, 29508, -425, 17421, 46087.0
550, 29857, -415, 17388, 46667.0
551, 30518, -335, 17374, 47193.5
552, 31254, -208, 17418, 48010.5
553, 31591, -103, 17425, 48688.5
554, 31990, -6, 17409, 49153.0
555, 32678, 119, 17459, 49824.5
556, 32764, 268, 17520, 50404.0
557, 32764, 466, 17540, 50661.0
558, 32764, 738, 17560, 50916.0
559, 32764, 1091, 17580, 51248.5
560, 32764, 1452, 17549, 51600.0
561, 32764, 1776, 17502, 51903.5
562, 32764, 2138, 17508, 52226.0
563, 32764, 2498, 17512, 52592.0
564, 32764, 2832, 17459, 52914.5
565, 32764, 3154, 17438, 53205.5
566, 32764, 3353, 17452, 53462.5
567, 32167, 3433, 17388, 53278.5
568, 31350, 3490, 17308, 52568.0
569, 30796, 3489, 17302, 51867.5
570, 29848, 3376, 17286, 51048.5
571, 29848, 3376, 17286, 50510.0
572, 27958, 3026, 17229, 49361.5
573, 27958, 3026, 17229, 48213.0
574, 25424, 2332, 17100, 46534.5
575, 25424, 2332, 17100, 44856.0
576, 23458, 1769, 17130, 43606.5
577, 23458, 1769, 17130, 42357.0
578, 20579, 1037, 17050, 40511.5
579, 20579, 1037, 17050, 38666.0
580, 17973, 592, 17051, 37141.0
581, 17973, 592, 17051, 35616.0
582, 16457, 387, 17000, 34730.0
583, 14998, 251, 16950, 33021.5
584, 13538, 100, 16895, 31366.0
585, 11972, -62, 16824, 29633.5
586, 10393, -194, 16748, 27840.5
587, 8924, -286, 16665, 26125.0
588, 7580, -349, 16596, 24565.0
589, 6130, -429, 16554, 23041.0
590, 4473, -496, 16512, 21372.0
591, 2905, -527, 16468, 19667.5
592, 1491, -561, 16424, 18100.0
593, -27, -608, 16364, 16541.5
594, -1607, -648, 16306, 14890.0
595, -2986, -685, 16267, 13323.5
596, -4283, -700, 16240, 11926.5
597, -5779, -696, 16204, 10493.0
598, -7332, -693, 16157, 8930.5
599, -8708, -658, 16118, 7442.0
600, -10090, -650, 16062, 6037.0
601, -11626, -719, 15974, 4475.5
602, -13002, -722, 15914, 2909.5
603, -14180, -656, 15922, 1638.0
604, -15529, -651, 15949, 427.5
605, -16987, -692, 15920, -995.0
606, -18290, -738, 15835, -2476.0
607, -19592, -781, 15765, -3900.5
608, -20940, -771, 15728, -5295.5
609, -21999, -764, 15704, -6521.0
610, -23030, -852, 15673, -7634.0
611, -24504, -983, 15618, -9039.0
612, -25884, -1056, 15579, -10615.0
613, -26695, -1049, 15587, -11759.0
614, -26695, -1049, 15587, -12157.0
615, -28659, -1208, 15492, -13266.0
616, -28659, -1208, 15492, -14375.0
617, -30031, -1214, 15518, -15051.0
618, -30031, -1214, 15518, -15727.0
619, -31711, -1288, 15472, -16627.0
620, -31711, -1288, 15472, -17527.0
621, -32541, -1342, 15454, -17978.0
622, -32541, -1342, 15454, -18429.0
623, -32764, -1358, 15475, -18538.0
624, -32764, -1358, 15475, -18647.0
625, -32764, -1332, 15480, -18631.5
626, -32764, -1288, 15504, -18582.0
627, -32764, -1288, 15504, -18548.0
628, -32764, -1358, 15566, -18552.0
629, -32764, -1358, 15566, -18556.0
630, -32764, -1333, 15577, -18538.0
631, -32764, -1333, 15577, -18520.0
632, -32568, -1247, 15590, -18372.5
633, -32568, -1247, 15590, -18225.0
634, -31288, -1054, 15675, -17446.0
635, -31288, -1054, 15675, -16667.0
636, -30438, -1065, 15733, -16218.5
637, -29666, -1018, 15760, -15347.0
638, -29108, -961, 15742, -14625.5
639, -28439, -915, 15722, -13979.5
640, -27364, -805, 15758, -13021.5
641, -26145, -674, 15838, -11696.0
642, -24882, -543, 15912, -10247.0
643, -23595, -448, 15975, -8790.5
644, -22735, -439, 15992, -7625.0
645, -22177, -393, 15926, -6913.0
646, -20927, -286, 15920, -5968.5
647, -18813, -166, 16068, -4102.0
648, -17002, -85, 16210, -1894.0
649, -15959, -113, 16232, -358.5
650, -14889, -122, 16190, 669.5
651, -13313, -102, 16175, 1969.5
652, -11469, -28, 16226, 3744.5
653, -9754, 145, 16301, 5710.5
654, -8210, 96, 16368, 7473.0
655, -6626, -138, 16436, 8963.0
656, -4924, -234, 16520, 10517.0
657, -3246, -298, 16612, 12215.0
658, -1766, -402, 16674, 13787.0
659, -358, -477, 16681, 15176.0
660, 1166, -558, 16668, 16561.0
661, 2796, -630, 16692, 18067.0
662, 4412, -675, 16749, 19672.0
663, 5886, -728, 16785, 21214.5
664, 7269, -802, 16804, 22607.0
665, 8833, -862, 16853, 24047.5
666, 10572, -880, 16920, 25718.0
667, 12101, -893, 16968, 27394.0
668, 13324, -893, 16968, 28787.5
669, 14625, -932, 17014, 30053.0
670, 14625, -932, 17014, 30707.0
671, 17702, -856, 17119, 32336.0
672, 17702, -856, 17119, 33965.0
673, 20172, -890, 17187, 35217.0
674, 20172, -890, 17187, 36469.0
675, 22617, -827, 17206, 37732.5
676, 22617, -827, 17206, 38996.0
677, 24985, -682, 17298, 40298.5
678, 24985, -682, 17298, 41601.0
679, 26007, -654, 17323, 42138.5
680, 26572, -618, 17304, 42967.0
681, 27428, -581, 17311, 43708.0
682, 28614, -563, 17375, 44792.0
683, 29320, -508, 17406, 45822.0
684, 29714, -451, 17382, 46431.5
685, 30460, -373, 17410, 47071.0
686, 31140, -272, 17458, 47911.5
687, 31355, -188, 17432, 48462.5
688, 31840, -62, 17414, 48895.5
689, 32764, 120, 17478, 49777.0
690, 32764, 325, 17532, 50491.5
691, 32764, 546, 17521, 50726.0
692, 32764, 788, 17487, 50935.0
693, 32764, 1080, 17478, 51180.5
694, 32764, 1422, 17486, 51497.0
695, 32764, 1807, 17490, 51866.5
696, 32764, 2168, 17506, 52249.5
697, 32764, 2506, 17513, 52610.5
698, 32764, 2862, 17482, 52945.5
699, 32764, 3124, 17443, 53219.5
700, 32764, 3262, 17424, 53390.5
701, 32428, 3399, 17427, 53352.0
702, 31757, 3486, 17408, 52952.5
703, 30783, 3427, 17346, 52103.5
704, 29742, 3256, 17274, 50914.0
705, 28942, 3084, 17223, 49760.5
706, 28185, 2932, 17194, 48780.0
707, 26994, 2630, 17152, 47543.5
708, 25666, 2248, 17105, 45897.5
709, 24660, 1970, 17101, 44375.0
710, 23570, 1678, 17074, 43026.5
711, 22134, 1320, 16994, 41385.0
712, 20745, 1049, 16965, 39603.5
713, 20745, 1049, 16965, 38759.0
714, 18119, 539, 16986, 37201.5
715, 18119, 539, 16986, 35644.0
716, 15109, 216, 16890, 33929.5
717, 15109, 216, 16890, 32215.0
718, 12176, -44, 16779, 30563.0
719, 12176, -44, 16779, 28911.0
720, 9162, -304, 16664, 27216.5
721, 9162, -304, 16664, 25522.0
722, 6338, -476, 16572, 23978.0
723, 6338, -476, 16572, 22434.0
724, 4762, -511, 16547, 21616.0
725, 1610, -550, 16425, 19141.5
726, 1610, -550, 16425, 17485.0
727, -1386, -596, 16357, 15930.0
728, -1386, -596, 16357, 14375.0
729, -4157, -582, 16224, 12930.0
730, -4157, -582, 16224, 11485.0
731, -7065, -596, 16154, 9989.0
732, -7065, -596, 16154, 8493.0
733, -9954, -572, 16133, 7050.0
734, -9954, -572, 16069, 5575.0
735, -11395, -635, 15996, 4754.5
736, -12738, -584, 15957, 3300.5
737, -13989, -538, 15946, 2027.0
738, -15340, -603, 15922, 699.0
739, -16725, -629, 15881, -747.0
740, -18025, -650, 15839, -2154.5
741, -19376, -702, 15792, -3561.0
742, -20744, -744, 15745, -5014.5
743, -21844, -796, 15710, -6336.5
744, -22847, -828, 15684, -7460.5
745, -24180, -900, 15660, -8705.5
746, -25613, -1004, 15629, -10204.0
747, -26577, -1032, 15603, -11497.0
748, -27376, -1092, 15578, -12448.0
749, -28551, -1200, 15520, -13560.5
750, -29519, -1218, 15488, -14740.0
751, -29934, -1229, 15527, -15442.5
752, -30560, -1296, 15538, -15977.0
753, -31538, -1347, 15484, -16859.5
754, -32176, -1360, 15457, -17740.0
755, -32531, -1353, 15470, -18246.5
756, -32531, -1353, 15470, -18414.0
757, -32764, -1364, 15404, -18569.0
758, -32764, -1384, 15420, -18726.0
759, -32764, -1399, 15471, -18710.0
760, -32764, -1380, 15498, -18669.0
761, -32764, -1392, 15520, -18641.0
762, -32764, -1414, 15549, -18632.5
763, -32764, -1398, 15568, -18611.5
764, -32764, -1371, 15586, -18571.5
765, -32764, -1338, 15604, -18523.5
766, -32538, -1297, 15606, -18363.5
767, -32538, -1297, 15606, -18229.0
768, -31458, -1173, 15689, -17585.5
769, -31458, -1173, 15689, -16942.0
770, -29982, -1131, 15747, -16154.0
771, -29982, -1131, 15747, -15366.0
772, -28403, -897, 15785, -14440.5
773, -28403, -897, 15785, -13515.0
774, -26274, -715, 15897, -12303.5
775, -26274, -715, 15897, -11092.0
776, -23786, -530, 15981, -9713.5
777, -23786, -530, 15981, -8335.0
778, -22888, -431, 16006, -7824.0
779, -22273, -364, 15969, -6990.5
780, -21032, -266, 15952, -6007.0
781, -18983, -125, 16044, -4205.0
782, -17184, -52, 16144, -2078.0
783, -16149, -50, 16168, -561.5
784, -15078, 1, 16163, 527.5
785, -13438, 0, 16185, 1916.5
786, -11662, 18, 16228, 3665.5
787, -10056, 158, 16284, 5485.0
788, -8421, 141, 16359, 7232.5
789, -6721, -20, 16441, 8889.5
790, -5092, -124, 16508, 10496.0
791, -3519, -224, 16558, 12053.5
792, -2037, -336, 16592, 13517.0
793, -667, -455, 16598, 14847.5
794, 848, -555, 16610, 16189.5
795, 2593, -617, 16674, 17776.5
796, 4259, -680, 16745, 19487.0
797, 5759, -730, 16789, 21071.0
798, 7210, -794, 16836, 22535.0
799, 8678, -840, 16890, 23990.0
800, 10259, -823, 16940, 25552.0
801, 11823, -860, 16978, 27158.5
802, 13164, -940, 16997, 28581.0
803, 14476, -950, 17024, 29885.5
804, 16044, -931, 17063, 31363.0
805, 17591, -928, 17110, 32974.5
806, 18790, -937, 17146, 34386.0
807, 20014, -910, 17173, 35638.0
808, 21453, -843, 17224, 37055.5
809, 22634, -805, 17276, 38469.5
810, 22634, -805, 17276, 39105.0
811, 24627, -706, 17294, 40160.0
812, 24627, -706, 17294, 41215.0
813, 26478, -663, 17292, 42161.0
814, 26478, -663, 17292, 43107.0
815, 28416, -527, 17328, 44162.0
816, 28416, -527, 17328, 45217.0
817, 29710, -441, 17426, 45956.0
818, 29710, -441, 17426, 46695.0
819, 31147, -199, 17449, 47546.0
820, 31147, -199, 17449, 48397.0
821, 31498, -123, 17461, 48616.5
822, 31737, -47, 17438, 48982.0
823, 32437, 75, 17482, 49561.0
824, 32764, 386, 17536, 50340.0
825, 32764, 386, 17536, 50686.0
826, 32764, 929, 17489, 50934.0
827, 32764, 929, 17489, 51182.0
828, 32764, 1640, 17449, 51517.5
829, 32764, 1640, 17449, 51853.0
830, 32764, 2416, 17492, 52262.5
831, 32764, 2416, 17492, 52672.0
832, 32764, 2774, 17476, 52843.0
833, 32764, 3107, 17456, 53170.5
834, 32764, 3353, 17466, 53455.0
835, 32534, 3513, 17432, 53531.0
836, 31709, 3606, 17370, 53082.0
837, 31043, 3582, 17338, 52324.0
838, 30176, 3416, 17293, 51424.0
839, 29107, 3284, 17225, 50250.5
840, 28230, 3132, 17190, 49084.0
841, 27178, 2765, 17158, 47826.5
842, 25909, 2390, 17119, 46259.5
843, 24793, 2118, 17109, 44719.0
844, 23619, 1801, 17090, 43265.0
845, 22320, 1455, 17046, 41665.5
846, 21062, 1132, 17020, 40017.5
847, 19694, 829, 16996, 38366.5
848, 18259, 582, 16948, 36654.0
849, 16931, 396, 16912, 35014.0
850, 15467, 236, 16878, 33410.0
851, 13822, 56, 16820, 31639.5
852, 12360, -108, 16757, 29853.5
853, 10963, -197, 16690, 28232.5
854, 9368, -286, 16617, 26577.5
855, 9368, -286, 16617, 25699.0
856, 6492, -473, 16592, 24155.0
857, 4959, -578, 16563, 21777.5
858, 3341, -616, 16491, 20080.0
859, 1893, -636, 16440, 18456.5
860, 438, -664, 16420, 16945.5
861, -1132, -684, 16394, 15386.0
862, -2630, -711, 16343, 13790.0
863, -4040, -710, 16294, 12273.0
864, -5453, -710, 16282, 10831.5
865, -6892, -712, 16260, 9387.5
866, -6892, -712, 16260, 8656.0
867, -9724, -670, 16093, 7177.5
868, -9724, -670, 16093, 5699.0
869, -12631, -724, 15964, 4154.0
870, -12631, -724, 15964, 2609.0
871, -15146, -658, 15928, 1366.5
872, -15146, -658, 15928, 124.0
873, -17970, -704, 15815, -1367.5
874, -17970, -704, 15815, -2859.0
875, -20598, -708, 15761, -4202.0
876, -20598, -704, 15741, -5553.0
877, -21758, -724, 15727, -6158.0
878, -22761, -755, 15716, -7277.5
879, -24001, -798, 15694, -8452.5
880, -25428, -878, 15633, -9889.0
881, -26444, -923, 15576, -11232.0
882, -27144, -964, 15560, -12169.5
883, -28172, -1094, 15534, -13140.0
884, -29230, -1146, 15509, -14299.5
885, -29958, -1107, 15514, -15209.0
886, -30744, -1154, 15499, -15975.0
887, -31535, -1201, 15481, -16827.0
888, -32028, -1214, 15498, -17499.5
889, -32359, -1262, 15533, -17916.0
890, -32764, -1291, 15550, -18296.5
891, -32764, -1341, 15518, -18546.0
892, -32764, -1392, 15492, -18625.5
893, -32764, -1355, 15514, -18634.5
894, -32764, -1327, 15521, -18587.5
895, -32764, -1328, 15523, -18569.5
896, -32764, -1297, 15544, -18543.0
897, -32764, -1274, 15545, -18505.0
898, -32764, -1263, 15536, -18492.0
899, -32764, -1254, 15544, -18482.5
900, -32584, -1246, 15550, -18377.0
901, -32409, -1220, 15550, -18179.5
902, -31787, -1198, 15598, -17733.0
903, -30782, -1160, 15689, -16820.0
904, -29910, -1074, 15759, -15739.0
905, -29266, -1015, 15778, -14864.0
906, -28562, -977, 15781, -14130.5
907, -27628, -876, 15811, -13225.5
908, -26593, -787, 15842, -12115.5
909, -26593, -787, 15842, -11538.0
910, -23988, -586, 15922, -10095.0
911, -23988, -586, 15922, -8652.0
912, -22190, -451, 15984, -7654.5
913, -22190, -451, 15984, -6657.0
914, -19553, -212, 15944, -5239.0
915, -19553, -212, 15944, -3821.0
916, -16240, -47, 16157, -1975.5
917, -16240, -47, 16157, -130.0
918, -13928, -166, 16140, 958.0
919, -13928, -166, 16140, 2046.0
920, -12079, -83, 16183, 3033.5
921, -10129, 111, 16298, 5150.5
922, -8528, 149, 16383, 7142.0
923, -5421, -163, 16507, 9463.5
924, -5421, -163, 16507, 10923.0
925, -2218, -289, 16634, 12525.0
926, -2218, -289, 16634, 14127.0
927, 667, -533, 16638, 15449.5
928, 667, -533, 16638, 16772.0
929, 4018, -614, 16766, 18471.0
930, 4018, -614, 16766, 20170.0
931, 5561, -639, 16838, 20965.0
932, 6963, -719, 16860, 22432.0
933, 8387, -762, 16875, 23802.0
934, 10054, -771, 16919, 25351.0
935, 11706, -810, 16968, 27033.0
936, 13011, -870, 16976, 28490.5
937, 14234, -929, 16959, 29690.5
938, 15784, -909, 16990, 31064.5
939, 17436, -841, 17074, 32767.0
940, 18707, -855, 17124, 34322.5
941, 19824, -893, 17109, 35508.0
942, 21194, -844, 17116, 36753.0
943, 22514, -788, 17196, 38194.0
944, 23566, -779, 17295, 39502.0
945, 24660, -730, 17346, 40679.0
946, 25764, -696, 17350, 41847.0
947, 26522, -692, 17348, 42798.0
948, 27192, -607, 17364, 43563.5
949, 28235, -528, 17400, 44528.0
950, 29244, -477, 17432, 45653.0
951, 29728, -400, 17403, 46465.0
952, 30227, -334, 17361, 46992.5
953, 31040, -222, 17398, 47735.0
954, 31040, -222, 17398, 48216.0
955, 31672, -58, 17425, 48627.5
956, 32318, 76, 17471, 49452.0
957, 32764, 285, 17555, 50234.5
958, 32764, 449, 17552, 50684.5
959, 32764, 633, 17473, 50817.5
960, 32764, 916, 17435, 50992.5
961, 32764, 1269, 17480, 51314.0
962, 32764, 1650, 17528, 51727.5
963, 32764, 1650, 17528, 51942.0
964, 32764, 2297, 17526, 52264.5
965, 32764, 2297, 17526, 52587.0
966, 32764, 3003, 17457, 52905.5
967, 32764, 3003, 17457, 53224.0
968, 32603, 3373, 17432, 53316.0
969, 32603, 3373, 17432, 53408.0
970, 30881, 3482, 17347, 52559.0
971, 30881, 3482, 17347, 51710.0
972, 29243, 3222, 17276, 50725.5
973, 29243, 3222, 17276, 49741.0
974, 28408, 3092, 17254, 49247.5
975, 27414, 2832, 17236, 48118.0
976, 26154, 2471, 17193, 46650.0
977, 24984, 2158, 17155, 45057.5
978, 23859, 1878, 17142, 43588.0
979, 22479, 1570, 17098, 42013.0
980, 21080, 1265, 17023, 40257.5
981, 19878, 995, 16967, 38604.0
982, 18618, 727, 16920, 37052.5
983, 17140, 497, 16864, 35383.0
984, 15597, 350, 16830, 33639.0
985, 14086, 209, 16827, 31949.5
986, 12605, 41, 16810, 30289.0
987, 11106, -98, 16752, 28608.0
988, 9550, -228, 16666, 26874.0
989, 8089, -335, 16604, 25173.0
990, 6700, -420, 16580, 23609.0
991, 5125, -470, 16548, 22031.5
992, 3506, -478, 16484, 20357.5
993, 2125, -534, 16423, 18763.0
994, 730, -588, 16384, 17270.0
995, -872, -592, 16347, 15704.5
996, -2388, -641, 16312, 14083.0
997, -3808, -686, 16281, 12535.0
998, -5312, -694, 16245, 11013.0
999, -6768, -702, 16218, 9493.5
1000, -8147, -665, 16176, 8056.0
1001, -9571, -641, 16098, 6625.0
1002, -11053, -688, 16030, 5087.5
1003, -12449, -692, 15989, 3568.5
1004, -13684, -646, 15960, 2239.0
1005, -14961, -647, 15929, 975.5
1006, -16340, -654, 15888, -392.5
1007, -17642, -659, 15850, -1778.5
1008, -17642, -659, 15850, -2451.0
1009, -20407, -782, 15768, -3936.0
1010, -20407, -782, 15768, -5421.0
1011, -22486, -860, 15679, -6544.0
1012, -22486, -860, 15679, -7667.0
1013, -25292, -1065, 15628, -9198.0
1014, -25292, -1065, 15628, -10729.0
1015, -27014, -1147, 15573, -11658.5
1016, -27014, -1147, 15573, -12588.0
1017, -29282, -1263, 15494, -13819.5
1018, -29282, -1263, 15494, -15051.0
1019, -29814, -1232, 15522, -15287.5
1020, -30435, -1300, 15519, -15870.0
1021, -31444, -1388, 15462, -16793.0
1022, -32343, -1411, 15515, -17804.5
1023, -32343, -1411, 15515, -18239.0
1024, -32764, -1347, 15500, -18425.0
1025, -32764, -1347, 15500, -18611.0
1026, -32764, -1343, 15523, -18597.5
1027, -32764, -1343, 15523, -18584.0
1028, -32764, -1303, 15498, -18576.5
1029, -32764, -1303, 15498, -18569.0
1030, -32764, -1316, 15538, -18555.5
1031, -32764, -1300, 15582, -18512.0
1032, -32764, -1265, 15580, -18465.5
1033, -32764, -1274, 15573, -18457.0
1034, -32642, -1266, 15588, -18392.5
1035, -32375, -1236, 15580, -18175.5
1036, -31915, -1207, 15586, -17783.5
1037, -30998, -1124, 15657, -17000.5
1038, -30041, -1034, 15725, -15907.5
1039, -29393, -980, 15746, -14988.5
1040, -28738, -903, 15762, -14253.0
1041, -27760, -810, 15800, -13324.5
1042, -26726, -741, 15825, -12206.0
1043, -25690, -648, 15833, -11073.5
1044, -24283, -514, 15901, -9700.5
1045, -22890, -380, 16006, -8080.0
1046, -22171, -332, 16000, -6883.5
1047, -21468, -331, 15897, -6202.5
1048, -19833, -203, 15897, -5020.5
1049, -17806, -30, 16034, -2970.5
1050, -16365, -7, 16149, -1012.5
1051, -15338, -7, 16149, 290.5
1052, -14042, -53, 16150, 1429.5
1053, -14042, -53, 16150, 2055.0
1054, -10484, 25, 16276, 3936.0
1055, -8752, 136, 16366, 6783.5
1056, -7176, -16, 16422, 8490.0
1057, -5620, -166, 16473, 9958.5
1058, -3953, -206, 16555, 11541.5
1059, -2318, -339, 16624, 13181.5
1060, -887, -500, 16617, 14598.5
1061, 479, -571, 16596, 15867.0
1062, 479, -571, 16596, 16504.0
1063, 3777, -644, 16764, 18200.5
1064, 3777, -644, 16764, 19897.0
1065, 6644, -801, 16780, 21260.0
1066, 6644, -801, 16780, 22623.0
1067, 9844, -826, 16879, 24260.0
1068, 9844, -826, 16879, 25897.0
1069, 12907, -932, 17086, 27479.0
1070, 12907, -932, 17086, 29061.0
1071, 15442, -948, 17036, 30295.5
1072, 15442, -948, 17036, 31530.0
1073, 17100, -891, 17075, 32407.0
1074, 18391, -845, 17132, 33981.0
1075, 19534, -872, 17140, 35240.0
1076, 20949, -875, 17154, 36515.0
1077, 22258, -809, 17208, 37942.5
1078, 23271, -771, 17261, 39209.0
1079, 24433, -698, 17308, 40402.0
1080, 25600, -629, 17336, 41675.0
1081, 26272, -699, 17329, 42604.5
1082, 26931, -676, 17324, 43240.5
1083, 28116, -506, 17362, 44275.5
1084, 29125, -452, 17400, 45522.5
1085, 29526, -445, 17378, 46266.0
1086, 30099, -343, 17352, 46783.5
1087, 31019, -241, 17387, 47636.5
1088, 31509, -150, 17406, 48465.0
1089, 31693, -46, 17371, 48891.5
1090, 32253, 41, 17381, 49346.5
1091, 32764, 169, 17472, 50040.0
1092, 32764, 341, 17534, 50522.0
1093, 32764, 548, 17534, 50742.5
1094, 32764, 850, 17535, 50997.5
1095, 32764, 1195, 17522, 51315.0
1096, 32764, 1540, 17479, 51632.0
1097, 32764, 1903, 17483, 51966.5
1098, 32764, 2263, 17519, 52348.0
1099, 32764, 2616, 17494, 52710.0
1100, 32764, 2947, 17456, 53020.5
1101, 32764, 3196, 17465, 53296.0
1102, 32660, 3363, 17456, 53452.0
1103, 31890, 3482, 17386, 53118.5
1104, 31141, 3511, 17292, 52351.0
1105, 30296, 3424, 17214, 51439.0
1106, 29316, 3302, 17168, 50360.0
1107, 29316, 3302, 17168, 49786.0
1108, 27652, 2927, 17161, 48763.0
1109, 27652, 2927, 17161, 47740.0
1110, 25068, 2202, 17070, 46040.0
1111, 25068, 2202, 17070, 44340.0
1112, 22794, 1560, 17025, 42859.5
1113, 22794, 1560, 17025, 41379.0
1114, 19988, 928, 16962, 39628.5
1115, 19988, 928, 16962, 37878.0
1116, 18645, 668, 16940, 37065.5
1117, 17272, 460, 16922, 35453.5
1118, 15832, 357, 16909, 33876.0
1119, 14299, 236, 16873, 32253.0
1120, 12760, 52, 16808, 30514.0
1121, 9715, -219, 16674, 27895.0
1122, 9715, -219, 16674, 26170.0
1123, 6900, -427, 16634, 24638.5
1124, 6900, -427, 16634, 23107.0
1125, 3717, -544, 16486, 21383.0
1126, 3717, -544, 16486, 19659.0
1127, 2298, -566, 16428, 18909.5
1128, 848, -570, 16374, 17406.0
1129, -727, -607, 16306, 15812.0
1130, -2198, -646, 16268, 14198.0
1131, -3592, -675, 16251, 12704.0
1132, -5057, -705, 16236, 11229.0
1133, -6459, -692, 16235, 9779.0
1134, -7829, -657, 16216, 8407.0
1135, -9345, -648, 16162, 6949.5
1136, -10871, -651, 16109, 5378.0
1137, -12253, -634, 16045, 3872.5
1138, -13531, -608, 15961, 2490.0
1139, -14845, -605, 15893, 1132.5
1140, -16218, -622, 15862, -267.5
1141, -17416, -643, 15864, -1586.5
1142, -18607, -670, 15843, -2814.5
1143, -20136, -722, 15760, -4266.0
1144, -21514, -738, 15684, -5833.0
1145, -22420, -725, 15671, -7021.0
1146, -23506, -804, 15670, -8057.0
1147, -25022, -923, 15609, -9488.0
1148, -26230, -971, 15522, -11007.5
1149, -26895, -1035, 15490, -12059.5
1150, -26895, -1035, 15490, -12440.0
1151, -29018, -1156, 15428, -13593.0
1152, -29018, -1156, 15428, -14746.0
1153, -30415, -1216, 15434, -15471.5
1154, -31159, -1255, 15468, -16571.5
1155, -31867, -1276, 15490, -17299.5
1156, -32218, -1274, 15501, -17822.0
1157, -32626, -1334, 15521, -18215.0
1158, -32764, -1379, 15519, -18531.5
1159, -32764, -1370, 15522, -18618.0
1160, -32764, -1402, 15574, -18602.0
1161, -32764, -1402, 15574, -18592.0
1162, -32764, -1424, 15556, -18612.0
1163, -32764, -1424, 15556, -18632.0
1164, -32764, -1367, 15635, -18564.0
1165, -32764, -1367, 15635, -18496.0
1166, -32764, -1364, 15592, -18516.0
1167, -32764, -1364, 15592, -18536.0
1168, -32491, -1302, 15609, -18360.0
1169, -32491, -1302, 15609, -18184.0
1170, -30977, -1207, 15681, -17343.5
1171, -30977, -1207, 15681, -16503.0
1172, -30173, -1128, 15692, -16056.0
1173, -29384, -1073, 15721, -15172.5
1174, -28733, -1016, 15750, -14367.5
1175, -28004, -922, 15774, -13575.5
1176, -26957, -808, 15809, -12554.0
1177, -25723, -715, 15863, -11265.5
1178, -24394, -617, 15956, -9815.0
1179, -23216, -476, 16033, -8357.0
1180, -22469, -388, 16004, -7256.0
1181, -21646, -377, 15933, -6471.5
1182, -20064, -292, 15976, -5235.0
1183, -18045, -136, 16120, -3220.5
1184, -16421, -90, 16215, -1178.5
1185, -15370, -130, 16210, 207.0
1186, -14294, -128, 16190, 1239.0
1187, -12671, -124, 16238, 2605.5
1188, -10724, 10, 16317, 4523.0
1189, -9000, 170, 16362, 6567.5
1190, -7510, 42, 16386, 8225.0
1191, -5893, -116, 16444, 9676.5
1192, -4104, -158, 16531, 11352.0
1193, -2466, -277, 16575, 13050.5
1194, -1103, -422, 16564, 14435.5
1195, 301, -512, 16561, 15694.5
1196, 1922, -560, 16626, 17169.0
1197, 3570, -604, 16729, 18841.5
1198, 5083, -680, 16778, 20438.0
1199, 6522, -740, 16785, 21874.0
1200, 8036, -743, 16841, 23350.5
1201, 9674, -722, 16941, 25013.5
1202, 11307, -775, 17014, 26719.5
1203, 12681, -887, 17033, 28186.5
1204, 12681, -887, 17033, 28827.0
1205, 15188, -893, 17050, 30086.0
1206, 15188, -893, 17050, 31345.0
1207, 18352, -867, 17167, 32998.5
1208, 18352, -867, 17167, 34652.0
1209, 20710, -868, 17186, 35840.0
1210, 20710, -868, 17186, 37028.0
1211, 23202, -828, 17276, 38339.0
1212, 23202, -828, 17276, 39650.0
1213, 25436, -649, 17303, 40870.0
1214, 25436, -649, 17303, 42090.0
1215, 26271, -656, 17352, 42528.5
1216, 26888, -618, 17359, 43298.0
1217, 27874, -507, 17352, 44174.0
1218, 28925, -456, 17381, 45284.5
1219, 29508, -451, 17431, 46169.0
1220, 30829, -265, 17476, 47264.0
1221, 30829, -265, 17476, 48040.0
1222, 31572, -126, 17441, 48463.5
1223, 31572, -126, 17441, 48887.0
1224, 32764, 88, 17552, 49645.5
1225, 32764, 88, 17552, 50404.0
1226, 32764, 234, 17549, 50475.5
1227, 32764, 467, 17506, 50642.0
1228, 32764, 763, 17504, 50884.0
1229, 32764, 1090, 17520, 51202.5
1230, 32764, 1432, 17501, 51535.5
1231, 32764, 1799, 17485, 51872.5
1232, 32764, 2171, 17504, 52243.5
1233, 32764, 2528, 17498, 52614.5
1234, 32764, 2853, 17445, 52926.0
1235, 32764, 3098, 17400, 53162.0
1236, 32764, 3286, 17380, 53346.0
1237, 32019, 3438, 17348, 53117.5
1238, 31195, 3493, 17303, 52398.0
1239, 30414, 3419, 17271, 51547.5
1240, 29451, 3295, 17230, 50540.0
1241, 28621, 3189, 17197, 49491.5
1242, 27797, 2985, 17196, 48492.5
1243, 26500, 2650, 17144, 47136.0
1244, 25210, 2332, 17078, 45457.0
1245, 24264, 2068, 17103, 44027.5
1246, 23086, 1760, 17136, 42708.5
1247, 21579, 1400, 17090, 41025.5
1248, 20232, 1090, 17030, 39210.5
1249, 20232, 1090, 17030, 38352.0
1250, 17600, 556, 16936, 36722.0
1251, 17600, 556, 16936, 35092.0
1252, 14584, 265, 16884, 33412.5
1253, 13094, 63, 16820, 30855.0
1254, 11560, -97, 16745, 29092.5
1255, 10019, -177, 16696, 27373.0
1256, 8543, -243, 16663, 25750.5
1257, 7091, -320, 16614, 24174.0
1258, 5526, -320, 16614, 22602.5
1259, 3942, -446, 16500, 20908.0
1260, 3942, -446, 16500, 19996.0
1261, 1071, -513, 16443, 18498.5
1262, 1071, -513, 16443, 17001.0
1263, -1964, -628, 16347, 15378.0
1264, -1964, -628, 16347, 13755.0
1265, -4812, -694, 16330, 12289.5
1266, -4812, -694, 16330, 10824.0
1267, -7726, -692, 16226, 9316.0
1268, -7726, -692, 16226, 7808.0
1269, -9207, -677, 16187, 7055.5
1270, -10706, -678, 16149, 5534.0
1271, -12102, -718, 16072, 4008.5
1272, -13359, -750, 15977, 2560.0
1273, -14659, -776, 15921, 1177.0
1274, -16053, -793, 15896, -232.0
1275, -17318, -765, 15867, -1583.0
1276, -18544, -781, 15813, -2864.0
1277, -20052, -829, 15730, -4331.5
1278, -21441, -807, 15672, -5863.5
1279, -22341, -802, 15676, -7021.5
1280, -23364, -883, 15674, -8020.0
1281, -24753, -1010, 15623, -9356.5
1282, -25980, -1102, 15574, -10824.0
1283, -26874, -1104, 15562, -11962.0
1284, -27813, -1138, 15563, -12902.0
1285, -28922, -1208, 15523, -13997.5
1286, -29710, -1197, 15476, -15019.0
1287, -30161, -1200, 15497, -15647.5
1288, -30916, -1262, 15522, -16260.0
1289, -31863, -1296, 15490, -17162.5
1290, -32369, -1322, 15467, -17946.5
1291, -32696, -1355, 15482, -18396.5
1292, -32764, -1354, 15493, -18597.0
1293, -32764, -1346, 15504, -18615.5
1294, -32764, -1351, 15520, -18600.5
1295, -32764, -1376, 15517, -18609.0
1296, -32764, -1390, 15502, -18637.5
1297, -32764, -1350, 15504, -18631.0
1298, -32764, -1290, 15505, -18579.5
1299, -32764, -1270, 15486, -18548.5
1300, -32764, -1296, 15518, -18545.0
1301, -32711, -1274, 15607, -18460.0
1302, -32421, -1213, 15658, -18177.0
1303, -32421, -1213, 15658, -17976.0
1304, -31140, -1140, 15667, -17294.5
1305, -31140, -1140, 15667, -16613.0
1306, -29432, -1013, 15816, -15621.0
1307, -29432, -1013, 15816, -14629.0
1308, -27995, -900, 15824, -13850.0
1309, -27995, -900, 15824, -13071.0
1310, -26031, -701, 15870, -11966.5
1311, -26031, -701, 15870, -10862.0
1312, -23293, -498, 16026, -9313.5
1313, -23293, -498, 16026, -7765.0
1314, -22488, -382, 16040, -7297.5
1315, -21818, -330, 15974, -6502.0
1316, -20361, -247, 15976, -5403.0
1317, -18262, -99, 16086, -3453.5
1318, -16716, -84, 16144, -1465.5
1319, -14601, -110, 16116, 374.5
1320, -14601, -110, 16116, 1405.0
1321, -10958, -74, 16248, 3310.5
1322, -10958, -74, 16248, 5216.0
1323, -7658, 0, 16348, 6953.0
1324, -7658, 0, 16348, 8690.0
1325, -5990, -139, 16491, 9526.0
1326, -4363, -207, 16576, 11184.0
1327, -2781, -314, 16593, 12752.0
1328, -1347, -400, 16600, 14175.5
1329, 27, -472, 16632, 15520.0
1330, 1630, -555, 16701, 16981.5
1331, 3372, -606, 16767, 18654.5
1332, 4935, -684, 16782, 20283.0
1333, 6367, -763, 16781, 21709.0
1334, 7839, -774, 16827, 23138.5
1335, 9436, -798, 16900, 24715.0
1336, 11086, -854, 16945, 26357.5
1337, 12530, -897, 16972, 27891.0
1338, 13736, -930, 17010, 29210.5
1339, 15052, -900, 17040, 30504.0
1340, 16644, -851, 17040, 32012.5
1341, 18115, -877, 17038, 33554.5
1342, 19323, -888, 17096, 34903.5
1343, 20628, -832, 17198, 36262.5
1344, 21948, -811, 17270, 37700.5
1345, 22985, -816, 17277, 38926.5
1346, 22985, -816, 17277, 39446.0
1347, 25260, -612, 17307, 40700.5
1348, 25260, -612, 17307, 41955.0
1349, 26717, -627, 17341, 42693.0
1350, 26717, -627, 17341, 43431.0
1351, 28887, -450, 17394, 44631.0
1352, 29544, -427, 17474, 46211.0
1353, 30010, -376, 17494, 46859.5
1354, 30719, -295, 17476, 47514.0
1355, 31221, -212, 17446, 48177.5
1356, 31518, -103, 17426, 48648.0
1357, 31518, -103, 17426, 48841.0
1358, 32764, 170, 17519, 49647.0
1359, 32764, 170, 17519, 50453.0
1360, 32764, 494, 17496, 50603.5
1361, 32764, 494, 17496, 50754.0
1362, 32764, 1110, 17540, 51084.0
1363, 32764, 1110, 17540, 51414.0
1364, 32764, 1832, 17484, 51747.0
1365, 32764, 1832, 17484, 52080.0
1366, 32764, 2474, 17513, 52415.5
1367, 32764, 2474, 17513, 52751.0
1368, 32764, 2835, 17527, 52938.5
1369, 32764, 3128, 17526, 53272.0
1370, 32682, 3285, 17494, 53439.5
1371, 32170, 3422, 17435, 53244.0
1372, 31485, 3509, 17376, 52698.5
1373, 30548, 3419, 17312, 51824.5
1374, 29492, 3235, 17256, 50631.0
1375, 28712, 3116, 17247, 49529.0
1376, 27927, 2950, 17245, 48598.5
1377, 26667, 2600, 17180, 47284.5
1378, 25364, 2252, 17099, 45581.0
1379, 24348, 2004, 17085, 44076.0
1380, 23220, 1701, 17086, 42722.0
1381, 21790, 1366, 17033, 41098.0
1382, 20361, 1061, 16962, 39286.5
1383, 19106, 761, 16926, 37588.5
1384, 17800, 535, 16910, 36019.0
1385, 16274, 377, 16874, 34385.0
1386, 14686, 242, 16808, 32630.5
1387, 13222, 106, 16748, 30906.0
1388, 11751, -77, 16706, 29228.0
1389, 10158, -224, 16665, 27489.5
1390, 8666, -280, 16629, 25807.0
1391, 7318, -355, 16610, 24294.0
1392, 5851, -450, 16592, 22783.0
1393, 4222, -470, 16565, 21155.0
1394, 2641, -480, 16530, 19504.0
1395, 1199, -534, 16480, 17918.0
1396, -288, -583, 16407, 16340.5
1397, -1851, -618, 16344, 14705.5
1398, -3282, -645, 16299, 13123.5
1399, -4677, -672, 16230, 11626.5
1400, -6148, -699, 16172, 10103.0
1401, -7516, -681, 16162, 8645.0
1402, -7516, -681, 16162, 7965.0
1403, -10381, -650, 16056, 6495.0
1404, -10381, -650, 16056, 5025.0
1405, -13140, -674, 15858, 3534.5
1406, -13140, -674, 15858, 2044.0
1407, -15884, -678, 15852, 667.0
1408, -15884, -678, 15852, -710.0
1409, -18405, -748, 15794, -2034.5
1410, -18405, -748, 15794, -3359.0
1411, -21218, -775, 15743, -4804.5
1412, -21218, -820, 15727, -6280.5
1413, -22133, -823, 15731, -6768.0
1414, -23203, -872, 15694, -7803.0
1415, -24617, -1037, 15621, -9207.0
1416, -25735, -1116, 15593, -10645.5
1417, -26574, -1142, 15600, -11687.0
1418, -28882, -1289, 15522, -13382.5
1419, -28882, -1289, 15522, -14649.0
1420, -30122, -1292, 15519, -15272.0
1421, -30122, -1292, 15519, -15895.0
1422, -30839, -1344, 15518, -16280.0
1423, -31631, -1380, 15494, -17091.0
1424, -32218, -1368, 15470, -17816.5
1425, -32712, -1356, 15471, -18356.5
1426, -32764, -1360, 15477, -18622.0
1427, -32764, -1351, 15468, -18647.0
1428, -32764, -1366, 15479, -18649.0
1429, -32764, -1387, 15521, -18640.5
1430, -32764, -1394, 15550, -18619.0
1431, -32764, -1391, 15553, -18605.0
1432, -32764, -1372, 15544, -18597.0
1433, -32764, -1378, 15517, -18608.5
1434, -32764, -1368, 15511, -18623.0
1435, -32764, -1288, 15561, -18556.0
1436, -32321, -1212, 15611, -18206.5
1437, -31931, -1175, 15623, -17702.5
1438, -31278, -1141, 15650, -17126.0
1439, -30436, -1080, 15716, -16284.5
1440, -29769, -986, 15763, -15396.0
1441, -29183, -928, 15752, -14675.5
1442, -28220, -894, 15750, -13861.5
1443, -27019, -779, 15808, -12677.0
1444, -25951, -645, 15866, -11360.0
1445, -25951, -645, 15866, -10730.0
1446, -23520, -487, 15948, -9394.5
1447, -23520, -487, 15948, -8059.0
1448, -21986, -325, 15873, -7248.5
1449, -21986, -325, 15873, -6438.0
1450, -18448, -87, 15998, -4487.5
1451, -16945, -46, 16093, -1717.5
1452, -15962, -61, 16118, -401.5
1453, -14723, -4, 16138, 753.0
1454, -12964, -16, 16192, 2311.5
1455, -11135, 102, 16256, 4217.5
1456, -11135, 102, 16256, 5223.0
1457, -7975, 36, 16362, 6823.0
1458, -7975, 36, 16362, 8423.0
1459, -4652, -215, 16510, 10033.0
1460, -4652, -215, 16510, 11643.0
1461, -1619, -424, 16600, 13100.0
1462, -1619, -424, 16600, 14557.0
1463, 1412, -580, 16682, 16035.5
1464, 1412, -580, 16682, 17514.0
1465, 4582, -670, 16759, 19092.5
1466, 4582, -670, 16759, 20671.0
1467, 6106, -775, 16787, 21394.5
1468, 7617, -852, 16823, 22853.0
1469, 9114, -856, 16867, 24356.5
1470, 10708, -860, 16924, 25948.5
1471, 12248, -892, 16983, 27555.5
1472, 13496, -925, 17006, 28958.0
1473, 14792, -936, 16988, 30210.5
1474, 16448, -893, 16992, 31695.5
1475, 17987, -874, 17055, 33357.5
1476, 19130, -891, 17130, 34768.5
1477, 20356, -859, 17181, 36023.5
1478, 21758, -812, 17225, 37424.5
1479, 22849, -803, 17258, 38737.5
1480, 23774, -770, 17274, 39791.0
1481, 25003, -679, 17312, 40957.0
1482, 26089, -634, 17355, 42223.0
1483, 26692, -674, 17349, 43088.5
1484, 27548, -641, 17347, 43810.5
1485, 28754, -544, 17409, 44936.5
1486, 29496, -532, 17442, 46012.5
1487, 29948, -494, 17405, 46632.5
1488, 30692, -375, 17405, 47290.5
1489, 31268, -284, 17427, 48066.5
1490, 31427, -178, 17384, 48522.0
1491, 31918, -32, 17347, 48933.0
1492, 32764, 129, 17395, 49760.5
1493, 32764, 311, 17450, 50406.5
1494, 32764, 500, 17452, 50620.5
1495, 32764, 732, 17462, 50837.0
1496, 32764, 1048, 17494, 51132.0
1497, 32764, 1429, 17496, 51497.5
1498, 32764, 1814, 17490, 51878.5
1499, 32764, 1814, 17490, 52068.0
1500, 32764, 2494, 17510, 52418.0
1501, 32764, 2494, 17510, 52768.0
1502, 32764, 3135, 17444, 53055.5
1503, 32764, 3135, 17444, 53343.0
1504, 32176, 3430, 17419, 53184.0
1505, 32176, 3430, 17419, 53025.0
1506, 30786, 3506, 17344, 52330.5
1507, 30786, 3506, 17344, 51636.0
1508, 28763, 3185, 17246, 50415.0
1509, 28763, 3185, 17246, 49194.0
1510, 28009, 3010, 17219, 48716.0
1511, 26919, 2712, 17187, 47528.0
1512, 25541, 2361, 17126, 45923.0
1513, 24465, 2082, 17116, 44345.5
1514, 23403, 1805, 17140, 43005.5
1515, 21994, 1475, 17112, 41464.5
1516, 20564, 1132, 17061, 39669.0
1517, 17988, 604, 17007, 37178.0
1518, 17988, 604, 17007, 35599.0
1519, 15006, 250, 16926, 33890.5
1520, 15006, 250, 16926, 32182.0
1521, 13476, 71, 16888, 31308.5
1522, 11914, -97, 16840, 29546.0
1523, 10394, -192, 16780, 27819.5
1524, 8923, -262, 16718, 26180.5
1525, 7522, -372, 16673, 24601.0
1526, 6105, -460, 16638, 23053.0
1527, 4541, -506, 16576, 21447.0
1528, 2957, -555, 16500, 19756.5
1529, 1445, -602, 16444, 18094.5
1530, -105, -651, 16395, 16463.0
1531, -1640, -663, 16333, 14834.5
1532, -3030, -670, 16278, 13304.0
1533, -4418, -744, 16232, 11824.0
1534, -5893, -773, 16208, 10306.0
1535, -7307, -726, 16196, 8852.5
1536, -8676, -710, 16152, 7464.5
1537, -10143, -724, 16073, 5986.0
1538, -11635, -749, 15985, 4403.5
1539, -12968, -761, 15922, 2897.0
1540, -14251, -722, 15890, 1555.0
1541, -15673, -684, 15864, 212.0
1542, -17021, -688, 15847, -1177.5
1543, -18204, -739, 15829, -2488.0
1544, -18204, -739, 15829, -3114.0
1545, -21000, -851, 15701, -4632.0
1546, -21000, -851, 15701, -6150.0
1547, -22912, -786, 15685, -7081.5
1548, -22912, -786, 15685, -8013.0
1549, -25817, -1050, 15555, -9662.5
1550, -26631, -1092, 15513, -11761.0
1551, -27456, -1097, 15518, -12622.5
1552, -28688, -1146, 15522, -13673.5
1553, -29580, -1160, 15536, -14758.0
1554, -29996, -1167, 15559, -15404.0
1555, -29996, -1167, 15559, -15604.0
1556, -31716, -1306, 15474, -16576.0
1557, -31716, -1306, 15474, -17548.0
1558, -32455, -1309, 15527, -17892.5
1559, -32455, -1309, 15527, -18237.0
1560, -32764, -1362, 15456, -18453.5
1561, -32764, -1362, 15456, -18670.0
1562, -32764, -1342, 15519, -18628.5
1563, -32764, -1342, 15519, -18587.0
1564, -32764, -1301, 15534, -18559.0
1565, -32764, -1311, 15556, -18525.0
1566, -32764, -1328, 15602, -18504.5
1567, -32764, -1311, 15623, -18471.0
1568, -32764, -1336, 15598, -18477.0
1569, -32764, -1307, 15594, -18489.5
1570, -32380, -1217, 15643, -18215.5
1571, -31849, -1180, 15678, -17652.5
1572, -31452, -1148, 15653, -17149.0
1573, -30661, -1097, 15650, -16527.5
1574, -29676, -1018, 15704, -15549.0
1575, -29036, -918, 15732, -14606.0
1576, -28342, -864, 15746, -13841.0
1577, -27270, -784, 15815, -12849.5
1578, -26145, -672, 15893, -11581.5
1579, -24971, -607, 15948, -10277.0
1580, -23625, -505, 16006, -8877.0
1581, -22622, -375, 16028, -7546.5
1582, -21988, -308, 15966, -6649.5
1583, -20745, -255, 15949, -5690.5
1584, -18729, -152, 16078, -3927.0
1585, -17052, -82, 16205, -1866.0
1586, -16036, -57, 16204, -409.0
1587, -14866, -24, 16160, 690.5
1588, -13286, -64, 16175, 2047.5
1589, -11582, -29, 16221, 3717.5
1590, -9859, 122, 16249, 5561.0
1591, -8158, 96, 16309, 7379.5
1592, -6515, -44, 16422, 9055.0
1593, -4879, -146, 16533, 10685.5
1594, -3254, -274, 16606, 12293.0
1595, -1753, -422, 16636, 13769.5
1596, -343, -558, 16643, 15101.5
1597, 1167, -630, 16662, 16470.5
1598, 1167, -630, 16662, 17199.0
1599, 4443, -722, 16785, 18852.5
1600, 4443, -722, 16785, 20506.0
1601, 7408, -889, 16859, 21942.0
1602, 7408, -889, 16859, 23378.0
1603, 10582, -822, 16963, 25050.5
1604, 10582, -822, 16963, 26723.0
1605, 13388, -980, 16954, 28042.5
1606, 13388, -980, 16954, 29362.0
1607, 16250, -844, 17012, 30890.0
1608, 16250, -844, 17012, 32418.0
1609, 17786, -805, 17088, 33243.5
1610, 18898, -855, 17115, 34613.5
1611, 20118, -866, 17112, 35761.0
1612, 21617, -800, 17150, 37165.5
1613, 22840, -758, 17223, 38636.0
1614, 23785, -744, 17276, 39811.0
1615, 24902, -670, 17300, 40924.5
1616, 26602, -636, 17300, 42399.0
1617, 26602, -636, 17300, 43266.0
1618, 28628, -418, 17414, 44445.0
1619, 28628, -418, 17414, 45624.0
1620, 29261, -398, 17462, 45974.5
1621, 29610, -392, 17447, 46495.0
1622, 30442, -320, 17464, 47125.5
1623, 31231, -229, 17485, 48036.5
1624, 31430, -126, 17456, 48623.5
1625, 31819, 7, 17450, 49018.0
1626, 32626, 160, 17491, 49776.5
1627, 32764, 328, 17498, 50433.5
1628, 32764, 490, 17458, 50651.0
1629, 32764, 720, 17454, 50825.0
1630, 32764, 1070, 17495, 51133.5
1631, 32764, 1436, 17481, 51505.0
1632, 32764, 1801, 17414, 51830.0
1633, 32764, 2172, 17399, 52157.0
1634, 32764, 2504, 17439, 52521.0
1635, 32764, 2832, 17471, 52887.0
1636, 32764, 3153, 17488, 53236.0
1637, 32764, 3360, 17484, 53506.5
1638, 32323, 3438, 17443, 53406.0
1639, 31514, 3472, 17390, 52790.0
1640, 30736, 3435, 17353, 51950.0
1641, 29857, 3435, 17353, 51084.5
1642, 29016, 3203, 17268, 50066.0
1643, 29016, 3203, 17268, 49487.0
1644, 27104, 2659, 17250, 48250.0
1645, 27104, 2659, 17250, 47013.0
1646, 24518, 2029, 17096, 45328.0
1647, 24518, 2029, 17096, 43643.0
1648, 22268, 1522, 17084, 42258.5
1649, 20722, 1146, 17038, 39890.0
1650, 19426, 817, 16998, 38073.5
1651, 18163, 558, 16967, 36464.5
1652, 18163, 558, 16967, 35688.0
1653, 15193, 314, 16867, 34031.0
1654, 15193, 314, 16867, 32374.0
1655, 12186, -66, 16742, 30618.0
1656, 12186, -66, 16742, 28862.0
1657, 9167, -238, 16676, 27233.5
1658, 9167, -238, 16676, 25605.0
1659, 6258, -424, 16639, 24039.0
1660, 6258, -424, 16639, 22473.0
1661, 3135, -524, 16511, 20797.5
1662, 3135, -524, 16511, 19122.0
1663, 1742, -537, 16476, 18401.5
1664, 197, -562, 16446, 16881.0
1665, -1389, -607, 16384, 15234.5
1666, -2820, -650, 16319, 13618.5
1667, -4221, -702, 16278, 12102.0
1668, -5679, -719, 16247, 10602.0
1669, -7078, -686, 16212, 9148.5
1670, -8490, -651, 16146, 7726.5
1671, -10011, -642, 16063, 6207.5
1672, -11491, -654, 15984, 4624.5
1673, -12787, -628, 15905, 3164.5
1674, -14044, -619, 15850, 1838.5
1675, -15421, -659, 15843, 475.0
1676, -16746, -674, 15854, -901.5
1677, -17948, -730, 15822, -2211.0
1678, -19345, -825, 15734, -3646.0
1679, -20822, -877, 15665, -5235.0
1680, -21902, -852, 15678, -6555.0
1681, -22869, -811, 15707, -7524.5
1682, -24180, -908, 15666, -8697.5
1683, -25494, -1068, 15600, -10192.0
1684, -26468, -1107, 15578, -11479.5
1685, -27399, -1117, 15573, -12470.0
1686, -28518, -1220, 15539, -13571.0
1687, -29487, -1286, 15480, -14746.0
1688, -30037, -1285, 15462, -15576.5
1689, -30606, -1292, 15506, -16126.0
1690, -31476, -1276, 15522, -16811.0
1691, -32142, -1278, 15500, -17575.0
1692, -32480, -1310, 15484, -18113.0
1693, -32764, -1322, 15450, -18471.0
1694, -32764, -1363, 15421, -18671.0
1695, -32764, -1414, 15455, -18714.5
1696, -32764, -1390, 15495, -18691.0
1697, -32764, -1390, 15495, -18659.0
1698, -32764, -1376, 15504, -18647.5
1699, -32764, -1376, 15504, -18636.0
1700, -32764, -1310, 15549, -18580.5
1701, -32764, -1310, 15549, -18525.0
1702, -32764, -1254, 15558, -18492.5
1703, -32764, -1254, 15558, -18460.0
1704, -32324, -1194, 15659, -18159.5
1705, -32324, -1194, 15659, -17859.0
1706, -30594, -1126, 15716, -16931.5
1707, -30594, -1036, 15766, -15934.0
1708, -29764, -992, 15796, -15412.0
1709, -29150, -930, 15792, -14624.0
1710, -28494, -837, 15754, -13932.5
1711, -27592, -770, 15746, -13096.5
1712, -26520, -675, 15807, -12002.0
1713, -25214, -539, 15903, -10619.0
1714, -23765, -424, 15982, -9028.5
1715, -22129, -315, 15917, -7367.0
1716, -22129, -315, 15917, -6527.0
1717, -21017, -322, 15870, -5998.0
1718, -19136, -175, 15967, -4406.5
1719, -17348, -42, 16102, -2316.0
1720, -16213, -69, 16145, -712.5
1721, -15116, -104, 16132, 387.5
1722, -13526, -132, 16154, 1704.0
1723, -11724, -102, 16214, 3442.0
1724, -10010, 40, 16284, 5351.0
1725, -8357, 58, 16376, 7195.5
1726, -6781, -107, 16473, 8831.0
1727, -5208, -238, 16543, 10341.0
1728, -3477, -314, 16596, 11951.0
1729, -1880, -410, 16620, 13567.5
1730, -632, -520, 16609, 14893.5
1731, 761, -616, 16616, 16109.0
1732, 2562, -683, 16675, 17657.5
1733, 4307, -724, 16736, 19436.5
1734, 5725, -754, 16749, 21019.5
1735, 7076, -796, 16755, 22377.5
1736, 8676, -831, 16811, 23845.5
1737, 10398, -863, 16886, 25538.5
1738, 11849, -918, 16918, 27135.0
1739, 13066, -970, 16939, 28442.0
1740, 13066, -970, 16939, 29035.0
1741, 15956, -936, 17056, 30555.5
1742, 15956, -936, 17056, 32076.0
1743, 18604, -886, 17154, 33474.0
1744, 18604, -886, 17154, 34872.0
1745, 21484, -799, 17262, 36409.5
1746, 21484, -799, 17262, 37947.0
1747, 23508, -782, 17260, 38966.5
1748, 24725, -713, 17284, 40641.0
1749, 25878, -650, 17356, 41940.0
1750, 26529, -632, 17375, 42928.0
1751, 26529, -632, 17375, 43272.0
1752, 28430, -476, 17402, 44314.0
1753, 28430, -476, 17402, 45356.0
1754, 29692, -424, 17424, 46024.0
1755, 29692, -424, 17424, 46692.0
1756, 31183, -257, 17423, 47520.5
1757, 31183, -257, 17423, 48349.0
1758, 31841, -8, 17372, 48777.0
1759, 31841, -8, 17372, 49205.0
1760, 32764, 301, 17477, 49873.5
1761, 32764, 301, 17477, 50542.0
1762, 32764, 483, 17468, 50628.5
1763, 32764, 771, 17466, 50858.0
1764, 32764, 1120, 17519, 51202.0
1765, 32764, 1442, 17544, 51576.5
1766, 32764, 1762, 17502, 51889.0
1767, 32764, 2106, 17482, 52190.0
1768, 32764, 2484, 17522, 52561.0
1769, 32764, 2823, 17522, 52939.5
1770, 32764, 3062, 17468, 53201.5
1771, 32764, 3229, 17450, 53368.5
1772, 32625, 3353, 17454, 53437.5
1773, 31764, 3417, 17412, 53012.5
1774, 30879, 3372, 17357, 52100.5
1775, 30058, 3218, 17320, 51102.0
1776, 29111, 3054, 17276, 50018.5
1777, 28252, 2888, 17232, 48906.5
1778, 27249, 2615, 17191, 47713.5
1779, 25878, 2336, 17132, 46200.5
1780, 24661, 2107, 17095, 44604.5
1781, 23666, 1804, 17097, 43215.0
1782, 22432, 1442, 17080, 41760.5
1783, 21022, 1126, 17037, 40069.5
1784, 19643, 862, 16999, 38344.5
1785, 18264, 638, 16956, 36681.0
1786, 16907, 460, 16922, 35073.5
1787, 15485, 348, 16894, 33508.0
1788, 13928, 242, 16833, 31865.0
1789, 12390, 76, 16763, 30116.0
1790, 10881, -58, 16724, 28388.0
1791, 9336, -149, 16690, 26712.0
1792, 7907, -250, 16652, 25093.0
1793, 6540, -364, 16624, 23554.5
1794, 6540, -364, 16624, 22800.0
1795, 3420, -418, 16537, 21169.5
1796, 3420, -418, 16537, 19539.0
1797, 544, -513, 16426, 17998.0
1798, 544, -513, 16426, 16457.0
1799, -2547, -606, 16280, 14792.0
1800, -2547, -606, 16280, 13127.0
1801, -5438, -641, 16157, 11602.5
1802, -5438, -641, 16157, 10078.0
1803, -8226, -620, 16051, 8641.5
1804, -8226, -620, 16051, 7205.0
1805, -9634, -595, 16016, 6496.0
1806, -11167, -668, 15967, 4959.5
1807, -12608, -708, 15910, 3363.0
1808, -13861, -690, 15907, 1975.0
1809, -15170, -697, 15954, 721.5
1810, -16560, -717, 15958, -616.0
1811, -17836, -740, 15894, -2000.5
1812, -19212, -778, 15806, -3433.0
1813, -20744, -825, 15738, -5007.5
1814, -22756, -855, 15716, -6863.0
1815, -22756, -855, 15716, -7895.0
1816, -23967, -974, 15647, -8594.5
1817, -25392, -1108, 15548, -10123.0
1818, -26360, -1114, 15517, -11454.5
1819, -27109, -1139, 15538, -12333.5
1820, -28300, -1256, 15508, -13379.0
1821, -29519, -1313, 15424, -14728.0
1822, -30116, -1319, 15400, -15721.5
1823, -30633, -1316, 15442, -16271.0
1824, -31531, -1299, 15462, -16937.5
1825, -32154, -1319, 15484, -17678.5
1826, -32339, -1358, 15533, -18076.5
1827, -32764, -1355, 15528, -18377.5
1828, -32764, -1351, 15472, -18617.0
1829, -32764, -1361, 15468, -18650.0
1830, -32764, -1359, 15498, -18641.0
1831, -32764, -1364, 15506, -18623.5
1832, -32764, -1337, 15543, -18590.0
1833, -32764, -1284, 15592, -18507.0
1834, -32764, -1299, 15583, -18468.0
1835, -32764, -1295, 15569, -18485.0
1836, -32764, -1230, 15612, -18436.0
1837, -32564, -1204, 15612, -18269.0
1838, -32194, -1186, 15656, -17940.0
1839, -32194, -1186, 15656, -17724.0
1840, -30644, -1112, 15689, -16895.5
1841, -30644, -1112, 15689, -16067.0
1842, -29319, -928, 15765, -15274.5
1843, -29319, -928, 15765, -14482.0
1844, -27647, -733, 15753, -13554.5
1845, -27647, -733, 15753, -12627.0
1846, -25401, -590, 15834, -11392.0
1847, -23960, -455, 15917, -9327.5
1848, -23960, -455, 15917, -8498.0
1849, -22222, -323, 15956, -7543.5
1850, -22222, -323, 15956, -6589.0
1851, -19398, -187, 16004, -5085.0
1852, -19398, -187, 16004, -3581.0
1853, -16324, -14, 16213, -1853.0
1854, -16324, -14, 16213, -125.0
1855, -13810, -64, 16199, 1100.0
1856, -13810, -64, 16199, 2325.0
1857, -10274, 93, 16317, 4230.5
1858, -10274, 93, 16317, 6136.0
1859, -8640, 118, 16374, 6994.0
1860, -7038, -54, 16450, 8605.0
1861, -5367, -238, 16518, 10135.5
1862, -3740, -322, 16544, 11697.5
1863, -2287, -394, 16558, 13179.5
1864, -910, -527, 16568, 14504.0
1865, 586, -618, 16585, 15842.0
1866, 2242, -612, 16650, 17416.5
1867, 3938, -661, 16739, 19148.0
1868, 5520, -760, 16795, 20785.5
1869, 6950, -813, 16824, 22258.0
1870, 8403, -858, 16862, 23684.0
1871, 10040, -878, 16901, 25235.0
1872, 11676, -883, 16923, 26889.5
1873, 12997, -934, 16940, 28359.5
1874, 14172, -960, 16956, 29585.5
1875, 15655, -903, 16984, 30952.0
1876, 17267, -852, 17048, 32599.5
1877, 18555, -863, 17117, 34136.0
1878, 19764, -861, 17165, 35438.5
1879, 21186, -840, 17228, 36821.0
1880, 22498, -845, 17294, 38260.5
1881, 23534, -816, 17308, 39486.5
1882, 24602, -705, 17307, 40615.0
1883, 25699, -625, 17346, 41812.0
1884, 26493, -632, 17372, 42826.5
1885, 27241, -599, 17350, 43612.5
1886, 28284, -494, 17344, 44563.0
1887, 29167, -430, 17376, 45623.5
1888, 29634, -420, 17384, 46355.5
1889, 30185, -361, 17375, 46898.5
1890, 30912, -290, 17387, 47604.0
1891, 31430, -219, 17404, 48312.0
1892, 31854, -42, 17436, 48931.5
1893, 31854, -42, 17436, 49248.0
1894, 32764, 232, 17519, 49881.5
1895, 32764, 232, 17519, 50515.0
1896, 32764, 604, 17514, 50698.5
1897, 32764, 604, 17514, 50882.0
1898, 32764, 1301, 17601, 51274.0
1899, 32764, 1301, 17601, 51666.0
1900, 32764, 1944, 17526, 51950.0
1901, 32764, 1944, 17526, 52234.0
1902, 32764, 2661, 17502, 52580.5
1903, 32764, 2661, 17502, 52927.0
1904, 32764, 2999, 17478, 53084.0
1905, 32764, 3232, 17467, 53352.0
1906, 32525, 3366, 17438, 53396.0
1907, 31715, 3435, 17377, 52928.0
1908, 30939, 3434, 17313, 52106.5
1909, 30066, 3347, 17260, 51179.5
1910, 29116, 3241, 17220, 50125.0
1911, 28365, 3140, 17218, 49150.0
1912, 27398, 2865, 17218, 48102.0
1913, 24758, 2482, 17146, 45933.5
1914, 24758, 2201, 17056, 44200.5
1915, 23855, 1936, 17026, 43416.0
1916, 22728, 1620, 17026, 42095.5
1917, 21238, 1314, 17011, 40468.5
1918, 19770, 988, 16976, 38648.5
1919, 18514, 709, 16957, 36957.0
1920, 17186, 550, 16956, 35436.0
1921, 15610, 410, 16919, 33815.5
1922, 14073, 237, 16848, 32048.5
1923, 12699, 59, 16790, 30353.0
1924, 11173, -99, 16736, 28679.0
1925, 9518, -212, 16683, 26899.5
1926, 8088, -287, 16657, 25223.5
1927, 6742, -396, 16628, 23716.0
1928, 5177, -507, 16560, 22102.0
1929, 3598, -519, 16482, 20395.5
1930, 2188, -522, 16432, 18829.5
1931, 708, -597, 16388, 17298.5
1932, -909, -641, 16322, 15635.5
1933, -2380, -649, 16270, 14006.5
1934, -3716, -685, 16239, 12539.5
1935, -5180, -727, 16212, 11071.5
1936, -5180, -727, 16212, 10305.0
1937, -8070, -698, 16192, 8864.5
1938, -8070, -698, 16192, 7424.0
1939, -11102, -682, 16047, 5843.5
1940, -11102, -682, 16047, 4263.0
1941, -13656, -700, 15960, 2933.5
1942, -13656, -700, 15960, 1604.0
1943, -16468, -723, 15921, 167.0
1944, -16468, -723, 15921, -1270.0
1945, -19008, -835, 15785, -2664.0
1946, -20474, -863, 15718, -4838.5
1947, -20474, -863, 15718, -5619.0
1948, -22534, -857, 15688, -6661.0
1949, -22534, -857, 15688, -7703.0
1950, -25213, -1132, 15579, -9234.5
1951, -25213, -1132, 15579, -10766.0
1952, -26934, -1122, 15553, -11634.5
1953, -26934, -1122, 15553, -12503.0
1954, -29292, -1271, 15493, -13786.5
1955, -29292, -1271, 15493, -15070.0
1956, -30242, -1300, 15491, -15560.5
1957, -30242, -1300, 15491, -16051.0
1958, -31290, -1310, 15482, -16584.5
1959, -32115, -1294, 15452, -17537.5
1960, -32275, -1252, 15479, -18002.5
1961, -32702, -1244, 15486, -18254.0
1962, -32764, -1294, 15435, -18541.5
1963, -32764, -1322, 15427, -18641.0
1964, -32764, -1324, 15465, -18641.0
1965, -32764, -1311, 15500, -18599.0
1966, -32764, -1289, 15549, -18539.5
1967, -32764, -1309, 15578, -18499.5
1968, -32764, -1309, 15552, -18508.0
1969, -32764, -1245, 15536, -18497.0
1970, -32764, -1218, 15560, -18447.5
1971, -32728, -1196, 15596, -18375.0
1972, -32223, -1122, 15622, -18025.5
1973, -31659, -1081, 15627, -17418.0
1974, -30940, -1088, 15640, -16750.5
1975, -30019, -1080, 15710, -15888.5
1976, -29346, -1031, 15760, -15003.0
1977, -28859, -957, 15726, -14353.5
1978, -27875, -858, 15726, -13548.5
1979, -26637, -703, 15802, -12272.5
1980, -25538, -590, 15878, -10894.0
1981, -24256, -544, 15964, -9543.0
1982, -23105, -461, 16037, -8182.5
1983, -22550, -413, 15988, -7252.0
1984, -21664, -345, 15907, -6538.5
1985, -19661, -157, 15981, -4969.5
1986, -17585, -34, 16124, -2666.0
1987, -16430, -70, 16172, -911.5
1988, -15516, -89, 16144, 105.5
1989, -14091, -68, 16139, 1259.5
1990, -12350, -73, 16178, 2867.5
1991, -10571, 29, 16214, 4713.5
1992, -10571, 29, 16214, 5672.0
1993, -7098, -19, 16397, 7476.0
1994, -7098, -19, 16397, 9280.0
1995, -3997, -276, 16531, 10769.0
1996, -3997, -276, 16531, 12258.0
1997, -1040, -442, 16561, 13668.5
1998, -1040, -442, 16561, 15079.0
1999, 2060, -563, 16609, 16592.5
2000, 2060, -563, 16609, 18106.0
2001, 5297, -721, 16683, 19682.5
2002, 5297, -721, 16736, 21285.5
2003, 6646, -772, 16802, 21994.0
2004, 8163, -812, 16903, 23465.0
2005, 9843, -821, 16977, 25126.5
2006, 11445, -848, 16988, 26792.0
2007, 12829, -929, 16996, 28240.5
2008, 14135, -994, 17043, 29540.0
2009, 15613, -919, 17106, 30992.0
2010, 17173, -832, 17142, 32641.5
2011, 18444, -868, 17127, 34093.0
2012, 19556, -882, 17120, 35248.5
2013, 20936, -864, 17180, 36523.0
2014, 22369, -835, 17255, 38020.5
2015, 23434, -745, 17281, 39379.5
2016, 24394, -680, 17273, 40478.5
2017, 25453, -665, 17283, 41529.0
2018, 26248, -661, 17310, 42484.0
2019, 26930, -615, 17309, 43260.5
2020, 27968, -507, 17322, 44203.5
2021, 28960, -424, 17388, 45353.5
2022, 29514, -386, 17427, 46239.5
2023, 30106, -341, 17414, 46867.0
2024, 30912, -284, 17412, 47609.5
2025, 31449, -209, 17424, 48352.0
2026, 31800, -100, 17453, 48908.5
2027, 32428, 35, 17524, 49570.0
2028, 32764, 160, 17574, 50242.5
2029, 32764, 285, 17554, 50550.5
2030, 32764, 547, 17542, 50728.0
2031, 32764, 878, 17587, 51041.0
2032, 32764, 1143, 17604, 51370.0
2033, 32764, 1452, 17546, 51636.5
2034, 32764, 1788, 17482, 51898.0
2035, 32764, 1788, 17482, 52034.0
2036, 32764, 2486, 17440, 52362.0
2037, 32764, 2486, 17440, 52690.0
2038, 32764, 3221, 17434, 53054.5
2039, 32764, 3221, 17434, 53419.0
2040, 31790, 3477, 17319, 53002.5
2041, 31790, 3477, 17319, 52586.0
2042, 30361, 3465, 17284, 51848.0
2043, 30361, 3465, 17284, 51110.0
2044, 28666, 3224, 17252, 50126.0
2045, 27720, 2941, 17244, 48523.5
2046, 27720, 2941, 17244, 47905.0
2047, 25065, 2252, 17095, 46158.5
2048, 25065, 2252, 17095, 44412.0
2049, 22954, 1665, 17148, 43089.5
2050, 22954, 1665, 17148, 41767.0
2051, 20057, 998, 17053, 39937.5
2052, 20057, 998, 17053, 38108.0
2053, 17324, 509, 16956, 36448.5
2054, 17324, 509, 16956, 34789.0
2055, 14284, 264, 16853, 33095.0
2056, 14284, 264, 16853, 31401.0
2057, 12812, 80, 16776, 30534.5
2058, 11322, -78, 16713, 28812.5
2059, 9788, -189, 16670, 27113.0
2060, 8338, -288, 16623, 25471.0
2061, 6918, -383, 16568, 23888.0
2062, 5369, -473, 16512, 22255.5
2063, 3806, -536, 16468, 20573.0
2064, 2361, -541, 16442, 19000.0
2065, 868, -553, 16416, 17496.5
2066, -725, -586, 16375, 15897.5
2067, -2204, -616, 16346, 14295.0
2068, -3603, -685, 16323, 12780.5
2069, -5073, -731, 16277, 11254.0
2070, -6510, -712, 16240, 9745.5
2071, -7883, -687, 16207, 8327.5
2072, -9315, -672, 16144, 6897.0
2073, -10812, -700, 16075, 5360.0
2074, -12236, -740, 16005, 3796.0
2075, -13494, -734, 15950, 2375.5
2076, -14744, -700, 15936, 1107.0
2077, -16134, -697, 15918, -210.5
2078, -17489, -764, 15842, -1662.0
2079, -18749, -838, 15726, -3136.0
2080, -20096, -909, 15631, -4617.5
2081, -21344, -919, 15600, -6018.5
2082, -22335, -833, 15603, -7114.0
2083, -23529, -868, 15577, -8192.5
2084, -25017, -1029, 15530, -9668.0
2085, -26157, -1102, 15528, -11123.5
2086, -26878, -1138, 15569, -12089.0
2087, -27876, -1240, 15565, -12999.0
2088, -29107, -1305, 15509, -14227.0
2089, -29107, -1305, 15509, -14903.0
2090, -30297, -1275, 15536, -15469.5
2091, -30297, -1275, 15536, -16036.0
2092, -31885, -1318, 15465, -16887.0
2093, -31885, -1318, 15465, -17738.0
2094, -32729, -1361, 15496, -18166.0
2095, -32729, -1361, 15496, -18594.0
2096, -32764, -1374, 15489, -18621.5
2097, -32764, -1374, 15489, -18649.0
2098, -32764, -1333, 15496, -18625.0
2099, -32764, -1333, 15496, -18601.0
2100, -32764, -1301, 15530, -18568.0
2101, -32764, -1309, 15575, -18516.5
2102, -32764, -1287, 15567, -18491.0
2103, -32764, -1249, 15540, -18478.5
2104, -32764, -1232, 15562, -18453.5
2105, -32673, -1206, 15597, -18358.0
2106, -32431, -1198, 15591, -18160.0
2107, -32004, -1162, 15579, -17812.5
2108, -31171, -1074, 15628, -17102.0
2109, -30240, -984, 15728, -16056.5
2110, -29472, -921, 15796, -15046.5
2111, -28795, -906, 15797, -14250.5
2112, -27909, -894, 15796, -13455.5
2113, -26851, -798, 15850, -12403.0
2114, -25745, -660, 15936, -11134.0
2115, -24417, -544, 16020, -9705.0
2116, -23214, -418, 16057, -8258.0
2117, -22536, -331, 15996, -7223.0
2118, -21674, -264, 15920, -6444.5
2119, -19926, -130, 15969, -5052.5
2120, -17950, -2, 16083, -2978.0
2121, -16594, -24, 16120, -1183.5
2122, -15534, -98, 16088, -21.0
2123, -14183, -94, 16088, 1133.5
2124, -12513, -102, 16156, 2676.0
2125, -10756, 14, 16237, 4518.0
2126, -9040, 184, 16324, 6481.5
2127, -7369, 57, 16439, 8297.5
2128, -5790, -181, 16526, 9841.0
2129, -4206, -286, 16559, 11311.0
2130, -2587, -388, 16587, 12839.5
2131, -1132, -512, 16620, 14294.0
2132, 238, -579, 16637, 15636.0
2133, 1807, -622, 16658, 17069.5
2134, 1807, -622, 16658, 17843.0
2135, 5112, -732, 16793, 19508.0
2136, 5112, -732, 16793, 21173.0
2137, 7856, -790, 16901, 22570.0
2138, 7856, -790, 16901, 23967.0
2139, 11144, -890, 16947, 25584.0
2140, 11144, -890, 16947, 27201.0
2141, 13880, -987, 16998, 28546.0
2142, 13880, -987, 16998, 29891.0
2143, 16886, -848, 17045, 31487.0
2144, 18232, -880, 17102, 33768.5
2145, 18232, -880, 17102, 34454.0
2146, 20668, -859, 17178, 35720.5
2147, 20668, -859, 17178, 36987.0
2148, 23095, -804, 17254, 38266.0
2149, 23095, -804, 17254, 39545.0
2150, 25316, -706, 17333, 40744.0
2151, 25316, -706, 17333, 41943.0
2152, 26898, -669, 17366, 42769.0
2153, 26898, -669, 17366, 43595.0
2154, 28931, -444, 17453, 44767.5
2155, 28931, -444, 17453, 45940.0
2156, 29511, -441, 17478, 46244.0
2157, 29996, -415, 17452, 46790.5
2158, 30782, -307, 17467, 47487.5
2159, 31349, -148, 17490, 48316.5
2160, 31634, -30, 17458, 48876.5
2161, 32228, 24, 17424, 49369.0
2162, 32764, 158, 17427, 50012.5
2163, 32764, 357, 17440, 50455.0
2164, 32764, 564, 17472, 50680.5
2165, 32764, 866, 17534, 50982.0
2166, 32764, 1170, 17545, 51321.5
2167, 32764, 1465, 17476, 51592.0
2168, 32764, 1844, 17433, 51873.0
2169, 32764, 2209, 17464, 52239.0
2170, 32764, 2569, 17480, 52625.0
2171, 32764, 2939, 17453, 52984.5
2172, 32764, 3169, 17443, 53266.0
2173, 32764, 3279, 17447, 53433.0
2174, 32083, 3394, 17416, 53191.5
2175, 31288, 3468, 17364, 52506.5
2176, 30457, 3380, 17315, 51636.0
2177, 29442, 3231, 17268, 50546.5
2178, 28605, 3136, 17258, 49470.0
2179, 27810, 2930, 17282, 48510.5
2180, 26557, 2599, 17252, 47215.0
2181, 25262, 2290, 17189, 45574.5
2182, 24244, 1983, 17153, 44060.5
2183, 23041, 1625, 17095, 42570.5
2184, 21630, 1278, 17015, 40842.0
2185, 20306, 1020, 16972, 39110.5
2186, 18974, 782, 16965, 37509.5
2187, 17542, 548, 16961, 35886.0
2188, 17542, 548, 16961, 35051.0
2189, 14506, 246, 16854, 33328.5
2190, 14506, 246, 16854, 31606.0
2191, 11503, -22, 16710, 29898.5
2192, 11503, -22, 16710, 28191.0
2193, 8607, -214, 16664, 26624.0
2194, 8607, -214, 16664, 25057.0
2195, 5715, -426, 16582, 23464.0
2196, 5715, -426, 16582, 21871.0
2197, 2481, -441, 16482, 20196.5
2198, 2481, -441, 16482, 18522.0
2199, 1054, -493, 16440, 17761.5
2200, -491, -555, 16374, 16164.5
2201, -2062, -596, 16304, 14487.0
2202, -3475, -634, 16248, 12892.5
2203, -4852, -650, 16211, 11424.0
2204, -6281, -654, 16206, 9990.0
2205, -7669, -697, 16200, 8552.5
2206, -9059, -744, 16155, 7093.0
2207, -10554, -732, 16106, 5586.0
2208, -12055, -714, 16069, 4060.0
2209, -13397, -715, 16034, 2611.0
2210, -14675, -696, 16002, 1276.5
2211, -16032, -710, 15942, -84.5
2212, -17330, -757, 15869, -1509.0
2213, -18543, -790, 15836, -2857.5
2214, -19904, -819, 15804, -4208.0
2215, -21243, -818, 15732, -5624.0
2216, -22270, -821, 15670, -6875.0
2217, -23377, -906, 15628, -8038.0
2218, -24736, -1032, 15603, -9410.0
2219, -25900, -1091, 15600, -10778.0
2220, -26877, -1103, 15572, -11899.5
2221, -27923, -1165, 15516, -12990.0
2222, -28943, -1230, 15488, -14128.5
2223, -29662, -1228, 15491, -15042.0
2224, -30135, -1246, 15503, -15638.5
2225, -30811, -1280, 15489, -16240.0
2226, -31700, -1296, 15450, -17074.0
2227, -32311, -1327, 15459, -17862.5
2228, -32666, -1349, 15498, -18348.0
2229, -32764, -1363, 15486, -18579.0
2230, -32764, -1341, 15448, -18649.0
2231, -32764, -1341, 15448, -18657.0
2232, -32764, -1325, 15524, -18611.0
2233, -32764, -1325, 15524, -18565.0
2234, -32764, -1295, 15554, -18535.0
2235, -32764, -1295, 15554, -18505.0
2236, -32764, -1283, 15578, -18487.0
2237, -32764, -1283, 15578, -18469.0
2238, -32764, -1298, 15600, -18465.5
2239, -32764, -1298, 15600, -18462.0
2240, -32070, -1178, 15583, -18063.5
2241, -32070, -1178, 15583, -17665.0
2242, -31208, -1112, 15646, -17169.5
2243, -29571, -1031, 15759, -15758.5
2244, -29571, -1031, 15759, -14843.0
2245, -28082, -888, 15731, -14041.0
2246, -28082, -888, 15731, -13239.0
2247, -25784, -677, 15894, -11903.0
2248, -25784, -677, 15894, -10567.0
2249, -23332, -476, 15984, -9195.5
2250, -23332, -476, 15984, -7824.0
2251, -21778, -258, 15945, -6957.5
2252, -21778, -258, 15945, -6091.0
2253, -20312, -174, 15934, -5321.5
2254, -18332, -82, 16026, -3470.0
2255, -16773, -57, 16137, -1540.5
2256, -15698, -82, 16174, -149.5
2257, -14430, -51, 16153, 1033.0
2258, -12688, -44, 16162, 2551.0
2259, -10841, 45, 16217, 4425.5
2260, -9247, 161, 16294, 6314.5
2261, -7777, 30, 16390, 7925.5
2262, -6204, -159, 16483, 9381.5
2263, -4488, -230, 16544, 10973.0
2264, -2821, -305, 16575, 12637.5
2265, -1384, -432, 16587, 14110.0
2266, 16, -555, 16597, 15414.5
2267, 1618, -628, 16618, 16833.0
2268, 3294, -660, 16679, 18460.5
2269, 4808, -692, 16771, 20100.0
2270, 6218, -759, 16831, 21588.5
2271, 7670, -824, 16856, 22996.0
2272, 9230, -840, 16892, 24492.0
2273, 10886, -844, 16940, 26132.0
2274, 12415, -880, 16990, 27753.5
2275, 13698, -964, 17031, 29145.0
2276, 15028, -984, 17046, 30427.5
2277, 16603, -910, 17070, 31926.5
2278, 18061, -866, 17134, 33546.0
2279, 19254, -850, 17186, 34959.5
2280, 20568, -825, 17192, 36262.5
2281, 21949, -814, 17196, 37633.0
2282, 22998, -808, 17232, 38876.5
2283, 23949, -738, 17286, 39959.5
2284, 25120, -630, 17327, 41157.0
2285, 26052, -615, 17314, 42284.0
2286, 26685, -624, 17267, 43039.5
2287, 26685, -624, 17267, 43328.0
2288, 28915, -465, 17386, 44582.0
2289, 28915, -465, 17386, 45836.0
2290, 29833, -415, 17396, 46325.0
2291, 29833, -415, 17396, 46814.0
2292, 31289, -221, 17468, 47675.0
2293, 31289, -221, 17468, 48536.0
2294, 32273, -10, 17484, 49141.5
2295, 32273, -10, 17484, 49747.0
2296, 32764, 392, 17533, 50218.0
2297, 32764, 392, 17585, 50715.0
2298, 32764, 624, 17595, 50862.0
2299, 32764, 849, 17574, 51085.0
2300, 32764, 1131, 17535, 51308.5
2301, 32764, 1508, 17492, 51597.0
2302, 32764, 1891, 17489, 51954.0
2303, 32764, 2210, 17516, 52317.0
2304, 32764, 2533, 17498, 52642.5
2305, 32764, 2846, 17417, 52911.0
2306, 32764, 3100, 17370, 53130.5
2307, 32764, 3299, 17395, 53346.0
2308, 32293, 3416, 17378, 53272.5
2309, 31317, 3420, 17293, 52558.5
2310, 30486, 3319, 17242, 51538.5
2311, 29619, 3176, 17239, 50540.5
2312, 28731, 3054, 17236, 49527.5
2313, 27918, 2870, 17228, 48518.5
2314, 26674, 2532, 17183, 47202.5
2315, 25264, 2172, 17120, 45472.5
2316, 24254, 1914, 17122, 43923.0
2317, 23172, 1649, 17117, 42614.0
2318, 21744, 1304, 17034, 41010.0
2319, 20399, 1018, 16976, 39237.5
2320, 19181, 783, 16982, 37669.5
2321, 17788, 525, 16970, 36114.5
2322, 16248, 367, 16906, 34402.0
2323, 14730, 268, 16826, 32672.5
2324, 13234, 116, 16754, 30964.0
2325, 11738, -24, 16693, 29255.5
2326, 10266, -146, 16645, 27586.0
2327, 8851, -254, 16602, 25982.0
2328, 7459, -341, 16564, 24440.5
2329, 5937, -431, 16533, 22860.5
2330, 5937, -431, 16533, 22039.0
2331, 2825, -485, 16458, 20418.5
2332, 2825, -485, 16458, 18798.0
2333, -204, -508, 16388, 17237.0
2334, -204, -508, 16388, 15676.0
2335, -3175, -567, 16320, 14127.0
2336, -3175, -567, 16320, 12578.0
2337, -6135, -630, 16252, 11032.5
2338, -6135, -630, 16252, 9487.0
2339, -8857, -585, 16176, 8110.5
2340, -8857, -585, 16176, 6734.0
2341, -10352, -551, 16089, 5960.0
2342, -13132, -646, 15931, 3669.5
2343, -13132, -646, 15931, 2153.0
2344, -15865, -662, 15868, 747.0
2345, -15865, -662, 15868, -659.0
2346, -18408, -738, 15809, -1998.0
2347, -18408, -738, 15809, -3337.0
2348, -21129, -868, 15687, -4823.5
2349, -21129, -868, 15687, -6310.0
2350, -23228, -870, 15643, -7382.5
2351, -23228, -870, 15643, -8455.0
2352, -24625, -972, 15618, -9217.0
2353, -25854, -1063, 15591, -10652.5
2354, -26721, -1098, 15574, -11785.5
2355, -27776, -1173, 15534, -12830.0
2356, -28956, -1240, 15497, -14057.0
2357, -29678, -1218, 15516, -15039.5
2358, -30137, -1196, 15553, -15580.0
2359, -30827, -1244, 15550, -16150.5
2360, -31620, -1312, 15527, -16963.0
2361, -32164, -1346, 15529, -17693.0
2362, -32595, -1368, 15548, -18198.0
2363, -32764, -1396, 15528, -18523.5
2364, -32764, -1404, 15477, -18661.5
2365, -32764, -1406, 15471, -18695.0
2366, -32764, -1380, 15499, -18672.0
2367, -32764, -1346, 15487, -18634.0
2368, -32764, -1349, 15474, -18631.0
2369, -32764, -1325, 15503, -18612.5
2370, -32764, -1304, 15512, -18571.0
2371, -32764, -1331, 15529, -18561.0
2372, -32757, -1290, 15584, -18514.5
2373, -32361, -1234, 15608, -18225.0
2374, -32060, -1232, 15622, -17828.5
2375, -31310, -1165, 15690, -17227.5
2376, -30340, -1090, 15776, -16219.5
2377, -29703, -1058, 15811, -15302.0
2378, -29163, -969, 15794, -14644.0
2379, -28240, -891, 15797, -13836.0
2380, -27057, -826, 15845, -12686.0
2381, -25946, -728, 15877, -11417.5
2382, -24766, -638, 15890, -10155.5
2383, -23539, -527, 15934, -8823.0
2384, -22729, -527, 15934, -7727.0
2385, -22027, -404, 15887, -6933.0
2386, -22027, -404, 15887, -6544.0
2387, -18548, -130, 16022, -4600.0
2388, -18548, -130, 16022, -2656.0
2389, -15990, -68, 16174, -1270.0
2390, -15990, -68, 16174, 116.0
2391, -13094, -121, 16145, 1523.0
2392, -13094, -121, 16145, 2930.0
2393, -9492, 163, 16308, 4954.5
2394, -9492, 163, 16308, 6979.0
2395, -7891, 172, 16393, 7826.5
2396, -6365, 1, 16440, 9375.0
2397, -4735, -150, 16488, 10839.5
2398, -3097, -247, 16584, 12421.5
2399, -1625, -327, 16677, 13982.5
2400, -210, -445, 16709, 15389.5
2401, 1360, -540, 16722, 16798.0
2402, 3017, -582, 16769, 18373.0
2403, 4599, -646, 16834, 19995.5
2404, 6092, -699, 16868, 21524.0
2405, 7530, -736, 16876, 22965.5
2406, 9075, -781, 16916, 24440.0
2407, 10781, -780, 16981, 26096.0
2408, 12304, -821, 17005, 27735.0
2409, 13513, -930, 16974, 29022.5
2410, 14838, -912, 16962, 30222.5
2411, 16482, -798, 17018, 31795.0
2412, 17975, -789, 17088, 33488.0
2413, 19114, -854, 17106, 34820.0
2414, 20378, -865, 17101, 35990.0
2415, 21807, -798, 17150, 37386.5
2416, 22915, -742, 17241, 38786.5
2417, 23813, -724, 17302, 39902.5
2418, 24976, -697, 17326, 40998.0
2419, 26062, -690, 17328, 42152.5
2420, 26725, -654, 17319, 43045.0
2421, 27616, -538, 17363, 43915.5
2422, 28824, -442, 17453, 45138.0
2423, 29478, -402, 17460, 46185.5
2424, 29734, -373, 17391, 46644.0
2425, 30433, -317, 17399, 47133.5
2426, 31210, -210, 17472, 47993.5
2427, 31546, -80, 17480, 48709.0
2428, 31984, 52, 17466, 49224.0
2429, 31984, 52, 17466, 49502.0
2430, 32764, 344, 17542, 50076.0
2431, 32764, 344, 17542, 50650.0
2432, 32764, 752, 17478, 50822.0
2433, 32764, 752, 17478, 50994.0
2434, 32764, 1430, 17576, 51382.0
2435, 32764, 1430, 17576, 51770.0
2436, 32764, 2044, 17488, 52033.0
2437, 32764, 2044, 17488, 52296.0
2438, 32764, 2762, 17499, 52660.5
2439, 32764, 2762, 17499, 53025.0
2440, 32764, 3108, 17560, 53228.5
2441, 32194, 3300, 17457, 53191.5
2442, 32194, 3300, 17457, 52951.0
2443, 30662, 3373, 17351, 52168.5
2444, 30662, 3373, 17351, 51386.0
2445, 28932, 3232, 17314, 50432.0
2446, 28932, 3232, 17314, 49478.0
2447, 26897, 2632, 17208, 48107.5
2448, 26897, 2632, 17208, 46737.0
2449, 24478, 2054, 17119, 45194.0
2450, 24478, 2054, 17119, 43651.0
2451, 23453, 1743, 17103, 42975.0
2452, 22112, 1392, 17032, 41417.5
2453, 20697, 1083, 16977, 39646.5
2454, 19358, 823, 16936, 37937.0
2455, 18012, 581, 16892, 36301.0
2456, 16548, 444, 16855, 34666.0
2457, 14978, 348, 16815, 32994.0
2458, 13486, 126, 16774, 31263.5
2459, 12114, -84, 16728, 29572.0
2460, 10599, -184, 16652, 27912.5
2461, 8977, -268, 16585, 26180.5
2462, 7542, -352, 16582, 24533.0
2463, 6108, -475, 16580, 22992.5
2464, 4465, -572, 16526, 21316.0
2465, 2890, -546, 16478, 19620.5
2466, 1467, -540, 16455, 18102.0
2467, -52, -597, 16420, 16576.5
2468, -1622, -625, 16360, 14942.0
2469, -3067, -678, 16298, 13333.0
2470, -4491, -733, 16240, 11784.5
2471, -5928, -703, 16197, 10291.0
2472, -7320, -687, 16164, 8861.5
2473, -8785, -686, 16114, 7400.0
2474, -10298, -649, 16056, 5876.0
2475, -11716, -687, 15994, 4350.0
2476, -13020, -728, 15924, 2883.5
2477, -14313, -678, 15853, 1519.0
2478, -15705, -682, 15790, 132.5
2479, -17056, -719, 15768, -1302.0
2480, -18287, -722, 15766, -2625.0
2481, -19662, -779, 15720, -3982.0
2482, -21022, -800, 15662, -5440.5
2483, -21022, -800, 15662, -6160.0
2484, -23079, -766, 15673, -7166.0
2485, -23079, -766, 15673, -8172.0
2486, -25644, -1042, 15644, -9607.0
2487, -25644, -1042, 15644, -11042.0
2488, -27616, -1064, 15544, -12089.0
2489, -27616, -1064, 15544, -13136.0
2490, -29443, -1142, 15475, -14123.0
2491, -29443, -1142, 15475, -15110.0
2492, -30593, -1202, 15476, -15714.5
2493, -30593, -1202, 15476, -16319.0
2494, -31518, -1288, 15493, -16816.0
2495, -32126, -1297, 15502, -17617.0
2496, -32507, -1313, 15503, -18119.0
2497, -32764, -1324, 15461, -18472.0
2498, -32764, -1310, 15432, -18634.5
2499, -32764, -1342, 15470, -18639.0
2500, -32764, -1368, 15486, -18641.0
2501, -32764, -1387, 15451, -18673.0
2502, -32764, -1397, 15476, -18692.5
2503, -32764, -1360, 15541, -18634.0
2504, -32764, -1360, 15549, -18579.0
2505, -32764, -1386, 15532, -18596.5
2506, -32764, -1366, 15545, -18601.5
2507, -32640, -1317, 15573, -18484.5
2508, -32306, -1250, 15602, -18169.0
2509, -31531, -1182, 15648, -17509.5
2510, -30540, -1134, 15714, -16512.5
2511, -29748, -1101, 15766, -15521.5
2512, -29154, -1092, 15775, -14777.0
2513, -28387, -1071, 15774, -14077.5
2514, -27396, -941, 15798, -13111.5
2515, -26373, -795, 15833, -11937.0
2516, -25090, -722, 15900, -10623.5
2517, -23655, -587, 15998, -9078.0
2518, -22810, -484, 16002, -7768.0
2519, -22252, -478, 15884, -7069.0
2520, -20834, -349, 15852, -6088.5
2521, -18758, -148, 15984, -4126.5
2522, -17200, -83, 16106, -2049.5
2523, -16211, -51, 16120, -659.5
2524, -15000, 14, 16105, 488.5
2525, -13328, 14, 16159, 1982.0
2526, -11486, 134, 16263, 3878.0
2527, -9710, 316, 16348, 5932.5
2528, -9710, 316, 16348, 6954.0
2529, -6434, 72, 16487, 8539.5
2530, -6434, 72, 16487, 10125.0
2531, -3098, -96, 16656, 11793.5
2532, -3098, -96, 16656, 13462.0
2533, -416, -297, 16637, 14693.0
2534, -416, -297, 16637, 15924.0
2535, 3040, -484, 16727, 17603.5
2536, 3040, -484, 16727, 19283.0
2537, 5936, -647, 16812, 20692.0
2538, 5936, -647, 16812, 22101.0
2539, 7313, -755, 16814, 22736.5
2540, 10549, -840, 16901, 24991.0
2541, 10549, -840, 16901, 26610.0
2542, 13339, -936, 16928, 27970.5
2543, 13339, -936, 16928, 29331.0
2544, 16236, -948, 17043, 30831.0
2545, 16236, -948, 17043, 32331.0
2546, 18904, -945, 17090, 33690.0
2547, 18904, -945, 17090, 35049.0
2548, 20093, -888, 17140, 35697.0
2549, 21540, -814, 17263, 37167.0
2550, 22733, -778, 17352, 38648.0
2551, 23615, -775, 17346, 39746.5
2552, 24724, -747, 17324, 40743.5
2553, 25890, -712, 17368, 41923.5
2554, 26690, -664, 17421, 42996.5
2555, 27469, -564, 17422, 43887.0
2556, 28485, -496, 17417, 44866.5
2557, 29247, -484, 17437, 45803.0
2558, 29717, -408, 17462, 46485.5
2559, 30435, -299, 17507, 47207.0
2560, 31139, -245, 17523, 48030.0
2561, 31395, -216, 17463, 48529.5
2562, 31770, -169, 17428, 48835.5
2563, 32537, -60, 17493, 49499.5
2564, 32764, 111, 17554, 50199.5
2565, 32764, 256, 17516, 50482.5
2566, 32764, 405, 17463, 50584.0
2567, 32764, 692, 17498, 50793.0
2568, 32764, 1034, 17550, 51151.0
2569, 32764, 1306, 17533, 51475.5
2570, 32764, 1613, 17491, 51735.5
2571, 32764, 1613, 17491, 51868.0
2572, 32764, 2424, 17512, 52284.0
2573, 32764, 2796, 17506, 52883.0
2574, 32764, 3106, 17476, 53206.0
2575, 32458, 3393, 17437, 53317.0
2576, 31763, 3661, 17393, 53052.5
2577, 30970, 3736, 17344, 52433.5
2578, 30046, 3649, 17276, 51510.5
2579, 29214, 3614, 17220, 50509.5
2580, 28484, 3521, 17223, 49638.0
2581, 27329, 3232, 17214, 48501.5
2582, 27329, 3232, 17214, 47775.0
2583, 24832, 2533, 17078, 46109.0
2584, 24832, 2533, 17078, 44443.0
2585, 22364, 1844, 17013, 42832.0
2586, 22364, 1844, 17013, 41221.0
2587, 19561, 1135, 16994, 39455.5
2588, 19561, 1135, 16994, 37690.0
2589, 16784, 548, 16906, 35964.0
2590, 16784, 548, 16906, 34238.0
2591, 13740, 232, 16786, 32498.0
2592, 13740, 232, 16786, 30758.0
2593, 12231, 52, 16747, 29894.0
2594, 10670, -90, 16700, 28155.0
2595, 9131, -244, 16649, 26408.0
2596, 7722, -375, 16642, 24762.5
2597, 6263, -484, 16640, 23204.0
2598, 4622, -567, 16583, 21528.5
2599, 3041, -620, 16510, 19784.5
2600, 1583, -676, 16449, 18143.5
2601, 59, -753, 16382, 16522.0
2602, -1477, -790, 16314, 14867.5
2603, -2893, -813, 16274, 13307.5
2604, -4331, -916, 16248, 11784.5
2605, -5816, -981, 16220, 10212.0
2606, -7222, -996, 16192, 8698.5
2607, -8651, -1023, 16144, 7222.0
2608, -10159, -974, 16073, 5705.0
2609, -11622, -959, 15990, 4174.5
2610, -12923, -1002, 15924, 2704.0
2611, -14129, -967, 15914, 1408.5
2612, -15464, -951, 15914, 158.5
2613, -16838, -947, 15884, -1201.0
2614, -18070, -919, 15841, -2524.5
2615, -19378, -960, 15779, -3853.5
2616, -20741, -1007, 15721, -5293.0
2617, -21838, -967, 15703, -6564.5
2618, -22846, -901, 15691, -7579.0
2619, -24092, -887, 15659, -8688.0
2620, -25406, -919, 15625, -10010.0
2621, -26340, -930, 15613, -11178.5
2622, -27118, -978, 15608, -12072.5
2623, -28342, -1080, 15552, -13179.0
2624, -29410, -1106, 15489, -14448.5
2625, -29410, -1106, 15489, -15027.0
2626, -30452, -1116, 15492, -15551.5
2627, -30452, -1116, 15492, -16076.0
2628, -31929, -1125, 15454, -16838.0
2629, -31929, -1125, 15454, -17600.0
2630, -32764, -1199, 15446, -18058.5
2631, -32764, -1199, 15446, -18517.0
2632, -32764, -1243, 15437, -18543.5
2633, -32764, -1243, 15437, -18570.0
2634, -32764, -1243, 15504, -18536.5
2635, -32764, -1243, 15504, -18503.0
2636, -32764, -1254, 15527, -18497.0
2637, -32764, -1238, 15554, -18469.5
2638, -32764, -1178, 15586, -18402.0
2639, -32764, -1205, 15608, -18358.5
2640, -32764, -1205, 15608, -18361.0
2641, -32035, -1126, 15623, -17949.5
2642, -32035, -1126, 15623, -17538.0
2643, -30692, -1085, 15669, -16823.0
2644, -30692, -1085, 15669, -16108.0
2645, -29176, -1000, 15763, -15260.5
2646, -29176, -1000, 15763, -14413.0
2647, -28596, -902, 15737, -14087.0
2648, -27626, -812, 15766, -13216.5
2649, -26444, -750, 15850, -12008.0
2650, -25179, -672, 15928, -10633.5
2651, -23908, -546, 15996, -9190.5
2652, -23053, -436, 16024, -7961.5
2653, -22453, -402, 15968, -7176.0
2654, -21198, -366, 15939, -6256.0
2655, -19132, -267, 16041, -4491.5
2656, -17338, -203, 16160, -2369.5
2657, -16275, -174, 16184, -823.0
2658, -15177, -138, 16150, 285.0
2659, -13578, -141, 16146, 1631.0
2660, -11739, -59, 16195, 3412.0
2661, -10010, 107, 16271, 5382.5
2662, -8405, 130, 16371, 7232.0
2663, -6774, 16, 16471, 8904.5
2664, -5088, -106, 16528, 10523.5
2665, -3416, -209, 16549, 12129.0
2666, -1924, -340, 16565, 13612.5
2667, -584, -462, 16591, 14923.0
2668, 941, -510, 16633, 16304.5
2669, 2651, -560, 16684, 17919.5
2670, 2651, -560, 16684, 18775.0
2671, 5714, -689, 16756, 20278.0
2672, 7206, -780, 16810, 22508.5
2673, 8741, -826, 16879, 24015.0
2674, 10384, -828, 16924, 25637.0
2675, 11984, -875, 16943, 27266.0
2676, 13294, -938, 16975, 28691.5
2677, 14539, -940, 17025, 29977.5
2678, 16047, -865, 17072, 31439.0
2679, 17530, -806, 17114, 33046.0
2680, 18707, -816, 17164, 34446.5
2681, 18707, -816, 17164, 35055.0
2682, 21348, -785, 17286, 36452.0
2683, 21348, -785, 17286, 37849.0
2684, 23558, -739, 17305, 38986.5
2685, 23558, -739, 17305, 40124.0
2686, 25825, -594, 17341, 41348.0
2687, 25825, -594, 17341, 42572.0
2688, 27250, -568, 17308, 43281.0
2689, 27250, -568, 17308, 43990.0
2690, 29240, -398, 17332, 45082.0
2691, 29240, -398, 17394, 46205.0
2692, 29660, -383, 17424, 46468.5
2693, 30257, -353, 17430, 47017.5
2694, 30986, -322, 17428, 47713.0
2695, 31408, -246, 17405, 48329.5
2696, 31868, -109, 17409, 48867.5
2697, 32606, 20, 17453, 49623.5
2698, 32764, 149, 17471, 50231.5
2699, 32764, 293, 17456, 50448.5
2700, 32764, 499, 17469, 50622.5
2701, 32764, 817, 17514, 50913.5
2702, 32764, 1179, 17518, 51278.0
2703, 32764, 1532, 17476, 51616.5
2704, 32764, 1853, 17464, 51926.5
2705, 32764, 2181, 17494, 52260.0
2706, 32764, 2589, 17498, 52645.0
2707, 32764, 2968, 17473, 53028.0
2708, 32764, 3220, 17484, 53336.5
2709, 32678, 3423, 17498, 53533.5
2710, 31822, 3570, 17428, 53209.5
2711, 30888, 3615, 17325, 52324.0
2712, 30094, 3551, 17264, 51368.5
2713, 29284, 3434, 17228, 50427.5
2714, 28486, 3270, 17208, 49455.0
2715, 27418, 2956, 17186, 48262.0
2716, 25997, 2600, 17134, 46645.5
2717, 24770, 2326, 17095, 44961.0
2718, 23767, 2040, 17081, 43539.5
2719, 22533, 1690, 17049, 42080.0
2720, 21095, 1342, 17007, 40358.0
2721, 19679, 1025, 16978, 38563.0
2722, 18294, 756, 16957, 36844.5
2723, 16871, 579, 16932, 35194.5
2724, 16871, 579, 16932, 34382.0
2725, 13864, 243, 16825, 32657.0
2726, 13864, 243, 16825, 30932.0
2727, 11000, -138, 16767, 29280.5
2728, 11000, -138, 16767, 27629.0
2729, 7804, -312, 16652, 25886.5
2730, 7804, -312, 16652, 24144.0
2731, 4838, -513, 16533, 22501.0
2732, 4838, -513, 16533, 20858.0
2733, 1762, -585, 16442, 19238.5
2734, 1762, -585, 16442, 17619.0
2735, 304, -610, 16376, 16844.5
2736, -1228, -668, 16319, 15246.5
2737, -2689, -714, 16292, 13656.0
2738, -5552, -832, 16194, 11349.5
2739, -5552, -832, 16194, 9810.0
2740, -8389, -766, 16107, 8381.0
2741, -8389, -766, 16107, 6952.0
2742, -11269, -766, 16032, 5474.5
2743, -11269, -766, 16032, 3997.0
2744, -13878, -804, 15968, 2641.5
2745, -13878, -804, 15968, 1286.0
2746, -15192, -787, 15964, 635.5
2747, -16546, -838, 15941, -729.0
2748, -17806, -862, 15890, -2110.5
2749, -19109, -872, 15820, -3469.5
2750, -20510, -828, 15762, -4868.5
2751, -21652, -750, 15738, -6120.0
2752, -22628, -788, 15702, -7189.0
2753, -23932, -932, 15622, -8478.0
2754, -25316, -1057, 15548, -10033.5
2755, -26256, -1095, 15526, -11325.0
2756, -27128, -1107, 15515, -12272.5
2757, -28323, -1180, 15471, -13376.0
2758, -29317, -1220, 15440, -14564.5
2759, -29840, -1182, 15462, -15328.5
2760, -30437, -1188, 15494, -15845.5
2761, -31316, -1250, 15486, -16605.5
2762, -32048, -1284, 15458, -17477.0
2763, -32504, -1314, 15477, -18107.5
2764, -32764, -1338, 15514, -18464.5
2765, -32764, -1318, 15510, -18580.0
2766, -32764, -1294, 15501, -18564.5
2767, -32764, -1282, 15517, -18543.0
2768, -32764, -1285, 15517, -18530.5
2769, -32764, -1285, 15517, -18532.0
2770, -32764, -1290, 15550, -18518.0
2771, -32764, -1256, 15553, -18485.5
2772, -32764, -1241, 15565, -18453.5
2773, -32764, -1214, 15624, -18397.0
2774, -32764, -1190, 15634, -18337.0
2775, -32344, -1178, 15606, -18118.0
2776, -31638, -1121, 15631, -17522.0
2777, -30752, -1027, 15705, -16601.0
2778, -29926, -961, 15776, -15592.5
2779, -29304, -934, 15772, -14788.5
2780, -29304, -934, 15772, -14466.0
2781, -27700, -841, 15706, -13650.5
2782, -27700, -841, 15706, -12835.0
2783, -25416, -604, 15888, -11483.5
2784, -25416, -604, 15888, -10132.0
2785, -22965, -356, 16006, -8723.5
2786, -22965, -356, 16006, -7315.0
2787, -21151, -285, 15892, -6429.5
2788, -21151, -285, 15892, -5544.0
2789, -17411, -106, 15966, -3547.5
2790, -17411, 12, 16095, -1427.5
2791, -16247, -18, 16154, -707.5
2792, -15212, -58, 16128, 373.5
2793, -13788, -108, 16102, 1532.0
2794, -11976, -53, 16163, 3170.0
2795, -10135, 170, 16265, 5217.0
2796, -8524, 212, 16340, 7164.0
2797, -6970, -18, 16394, 8717.0
2798, -5281, -197, 16432, 10180.0
2799, -3556, -303, 16483, 11789.0
2800, -2012, -436, 16569, 13372.5
2801, -654, -538, 16645, 14787.0
2802, 780, -584, 16678, 16163.5
2803, 2400, -634, 16685, 17662.5
2804, 3992, -711, 16704, 19218.0
2805, 5472, -761, 16748, 20722.0
2806, 6937, -774, 16819, 22220.5
2807, 8445, -772, 16899, 23777.0
2808, 10040, -808, 16938, 25371.0
2809, 11630, -896, 16936, 26920.0
2810, 12992, -959, 16940, 28321.5
2811, 14212, -938, 16972, 29609.5
2812, 15706, -866, 17021, 31053.5
2813, 17315, -823, 17076, 32714.5
2814, 18504, -831, 17114, 34177.5
2815, 19585, -844, 17136, 35332.0
2816, 21036, -820, 17186, 36639.5
2817, 22426, -750, 17250, 38164.0
2818, 23416, -682, 17279, 39469.5
2819, 24468, -645, 17290, 40563.0
2820, 25660, -652, 17312, 41716.5
2821, 26420, -685, 17306, 42680.5
2822, 27046, -604, 17282, 43382.5
2823, 27046, -604, 17282, 43724.0
2824, 29148, -361, 17393, 44952.0
2825, 29148, -361, 17393, 46180.0
2826, 30126, -371, 17337, 46636.0
2827, 30126, -371, 17337, 47092.0
2828, 31410, -245, 17422, 47839.5
2829, 31410, -245, 17422, 48587.0
2830, 32475, 0, 17497, 49279.5
2831, 32475, 0, 17497, 49972.0
2832, 32764, 276, 17532, 50272.0
2833, 32764, 276, 17532, 50572.0
2834, 32764, 499, 17510, 50672.5
2835, 32764, 834, 17546, 50958.5
2836, 32764, 1201, 17580, 51344.5
2837, 32764, 1942, 17530, 51890.5
2838, 32764, 1942, 17530, 52236.0
2839, 32764, 2614, 17424, 52519.0
2840, 32764, 2614, 17424, 52802.0
2841, 32764, 3262, 17450, 53139.0
2842, 32764, 3262, 17450, 53476.0
2843, 31814, 3480, 17340, 53055.0
2844, 31814, 3480, 17340, 52634.0
2845, 31143, 3530, 17318, 52312.5
2846, 30235, 3461, 17296, 51491.5
2847, 29171, 3346, 17258, 50383.5
2848, 28476, 3210, 17242, 49351.5
2849, 27601, 2872, 17213, 48307.0
2850, 26221, 2479, 17145, 46765.5
2851, 25016, 2198, 17098, 45078.5
2852, 23986, 1910, 17084, 43646.0
2853, 22670, 1568, 17052, 42135.0
2854, 21255, 1210, 17024, 40389.5
2855, 19931, 916, 17022, 38679.0
2856, 18516, 711, 17017, 37056.5
2857, 17040, 519, 16999, 35401.0
2858, 15598, 342, 16959, 33728.5
2859, 14078, 158, 16874, 32004.5
2860, 12565, -56, 16783, 30201.0
2861, 11170, -176, 16731, 28508.5
2862, 9723, -224, 16696, 26960.0
2863, 8199, -324, 16656, 25363.0
2864, 6680, -455, 16610, 23683.0
2865, 5070, -563, 16554, 21948.0
2866, 3433, -598, 16505, 20200.5
2867, 1976, -574, 16483, 18612.5
2868, 1976, -574, 16483, 17885.0
2869, -933, -676, 16384, 16330.0
2870, -2401, -710, 16302, 13983.0
2871, -3813, -735, 16223, 12433.0
2872, -5306, -762, 16169, 10888.0
2873, -6773, -762, 16158, 9362.0
2874, -8156, -718, 16148, 7948.5
2875, -9605, -671, 16108, 6553.0
2876, -11146, -704, 16051, 5016.5
2877, -12525, -704, 16051, 3511.5
2878, -13686, -681, 15954, 2204.5
2879, -13686, -681, 15954, 1587.0
2880, -16383, -642, 15879, 220.5
2881, -16383, -642, 15879, -1146.0
2882, -18863, -739, 15745, -2501.5
2883, -18863, -739, 15745, -3857.0
2884, -21498, -743, 15685, -5206.5
2885, -21498, -743, 15685, -6556.0
2886, -23810, -808, 15644, -7765.0
2887, -23810, -808, 15644, -8974.0
2888, -25201, -902, 15568, -9754.5
2889, -26172, -948, 15532, -11061.5
2890, -27090, -972, 15531, -12059.5
2891, -28225, -1048, 15519, -13142.5
2892, -29172, -1165, 15510, -14290.5
2893, -29755, -1193, 15509, -15133.0
2894, -30413, -1207, 15505, -15777.0
2895, -31221, -1272, 15508, -16550.0
2896, -31848, -1274, 15511, -17298.0
2897, -32333, -1251, 15502, -17846.5
2898, -32764, -1287, 15480, -18326.5
2899, -32764, -1308, 15452, -18595.5
2900, -32764, -1306, 15457, -18616.5
2901, -32764, -1342, 15504, -18607.5
2902, -32764, -1347, 15541, -18586.0
2903, -32764, -1329, 15547, -18558.0
2904, -32764, -1349, 15541, -18559.0
2905, -32764, -1294, 15529, -18550.5
2906, -32764, -1221, 15529, -18492.5
2907, -32764, -1244, 15564, -18450.0
2908, -32634, -1261, 15600, -18369.5
2909, -32323, -1230, 15597, -18125.5
2910, -31793, -1191, 15576, -17682.0
2911, -30984, -1144, 15594, -16971.0
2912, -30136, -1060, 15650, -16040.0
2913, -29382, -991, 15698, -15110.5
2914, -28646, -957, 15726, -14276.0
2915, -27690, -889, 15777, -13339.5
2916, -26636, -802, 15843, -12198.5
2917, -25592, -725, 15890, -11011.0
2918, -24266, -606, 15955, -9672.0
2919, -23034, -463, 16038, -8188.0
2920, -22385, -418, 16029, -7116.5
2921, -21533, -430, 15961, -6388.0
2922, -21533, -430, 15961, -6002.0
2923, -17641, -149, 16126, -3833.0
2924, -17641, -149, 16126, -1664.0
2925, -15429, -190, 16160, -561.5
2926, -15429, -190, 16160, 541.0
2927, -12267, -114, 16145, 2152.5
2928, -12267, -114, 16145, 3764.0
2929, -8811, 102, 16273, 5664.0
2930, -8811, 102, 16273, 7564.0
2931, -5532, -187, 16435, 9140.0
2932, -5532, -187, 16435, 10716.0
2933, -3844, -239, 16498, 11565.5
2934, -2356, -326, 16526, 13129.5
2935, -932, -410, 16555, 14528.5
2936, 2172, -525, 16661, 16760.5
2937, 2172, -525, 16661, 18308.0
2938, 5226, -628, 16827, 19866.5
2939, 5226, -628, 16827, 21425.0
2940, 8125, -784, 16887, 22826.5
2941, 8125, -784, 16887, 24228.0
2942, 11493, -826, 16982, 25938.5
2943, 11493, -826, 16982, 27649.0
2944, 12866, -866, 17041, 28345.0
2945, 14076, -920, 17075, 29636.0
2946, 15500, -885, 17094, 30970.0
2947, 17074, -810, 17130, 32551.5
2948, 18411, -818, 17175, 34081.0
2949, 19585, -825, 17196, 35362.0
2950, 20880, -806, 17198, 36614.0
2951, 22119, -818, 17210, 37891.5
2952, 23197, -797, 17239, 39075.0
2953, 24366, -708, 17274, 40285.5
2954, 25514, -655, 17290, 41540.5
2955, 26287, -682, 17270, 42512.0
2956, 26992, -639, 17266, 43247.0
2957, 28062, -521, 17341, 44250.5
2958, 29009, -461, 17424, 45427.0
2959, 29490, -427, 17411, 46223.0
2960, 30074, -353, 17375, 46785.0
2961, 30848, -251, 17406, 47549.5
2962, 31249, -180, 17444, 48258.0
2963, 31548, -118, 17456, 48699.5
2964, 32303, 24, 17499, 49356.0
2965, 32303, 24, 17499, 49826.0
2966, 32764, 403, 17554, 50273.5
2967, 32764, 403, 17554, 50721.0
2968, 32764, 868, 17502, 50927.5
2969, 32764, 1174, 17490, 51281.0
2970, 32764, 1555, 17474, 51610.5
2971, 32764, 1914, 17472, 51971.5
2972, 32764, 2219, 17480, 52306.5
2973, 32764, 2565, 17476, 52634.0
2974, 32764, 2926, 17464, 52979.5
2975, 32764, 3169, 17452, 53269.5
2976, 32764, 3169, 17452, 53385.0
2977, 32002, 3410, 17391, 53094.0
2978, 32002, 3410, 17391, 52803.0
2979, 30315, 3340, 17289, 51873.5
2980, 30315, 3340, 17289, 50944.0
2981, 28573, 3082, 17233, 49916.0
2982, 28573, 3082, 17233, 48888.0
2983, 26270, 2423, 17145, 47363.0
2984, 26270, 2423, 17145, 45838.0
2985, 24175, 1942, 17150, 44552.5
2986, 24175, 1942, 17150, 43267.0
2987, 22907, 1596, 17137, 42453.5
2988, 21348, 1252, 17053, 40646.5
2989, 20030, 1003, 16997, 38841.5
2990, 18813, 766, 16983, 37296.0
2991, 17369, 541, 16946, 35709.0
2992, 15827, 357, 16870, 33955.0
2993, 14336, 183, 16781, 32177.0
2994, 12855, 19, 16711, 30442.5
2995, 11364, -97, 16678, 28765.0
2996, 9867, -166, 16659, 27152.5
2997, 8410, -238, 16628, 25580.0
2998, 6984, -357, 16587, 24007.0
2999, 5432, -482, 16540, 22352.0
3000, 3778, -539, 16472, 20600.5
3001, 2258, -550, 16399, 18909.0
3002, 825, -556, 16342, 17359.0
3003, -684, -572, 16301, 15828.0
3004, -2147, -614, 16284, 14284.0
3005, -3526, -672, 16278, 12801.5
3006, -4972, -723, 16236, 11310.5
3007, -6446, -747, 16193, 9770.5
3008, -7884, -697, 16182, 8300.5
3009, -9374, -626, 16149, 6875.0
3010, -10913, -629, 16064, 5335.5
3011, -12368, -669, 15972, 3728.5
3012, -13620, -684, 15925, 2278.0
3013, -14834, -680, 15906, 1006.5
3014, -16208, -690, 15866, -320.0
3015, -17520, -708, 15812, -1724.0
3016, -18730, -740, 15751, -3067.5
3017, -20170, -788, 15681, -4498.0
3018, -21522, -758, 15648, -5954.5
3019, -22420, -719, 15656, -7057.5
3020, -23537, -787, 15646, -8080.5
3021, -23537, -787, 15646, -8678.0
3022, -26213, -953, 15556, -10144.0
3023, -26213, -953, 15556, -11610.0
3024, -27895, -1059, 15551, -12506.5
3025, -27895, -1059, 15551, -13403.0
3026, -29680, -1176, 15528, -14365.5
3027, -29680, -1176, 15528, -15328.0
3028, -31200, -1317, 15500, -16172.5
3029, -31200, -1317, 15500, -17017.0
3030, -32285, -1274, 15500, -17538.0
3031, -32285, -1274, 15500, -18059.0
3032, -32698, -1286, 15510, -18266.5
3033, -32764, -1304, 15484, -18529.0
3034, -32764, -1339, 15461, -18613.0
3035, -32764, -1305, 15514, -18598.5
3036, -32764, -1305, 15514, -18555.0
3037, -32764, -1364, 15536, -18573.5
3038, -32764, -1364, 15536, -18592.0
3039, -32764, -1358, 15551, -18581.5
3040, -32764, -1358, 15551, -18571.0
3041, -32764, -1342, 15545, -18566.0
3042, -32764, -1252, 15577, -18500.0
3043, -32353, -1206, 15624, -18187.0
3044, -31856, -1168, 15660, -17649.5
3045, -31148, -1121, 15695, -16969.0
3046, -30192, -1125, 15766, -16062.5
3047, -29401, -1085, 15831, -15103.0
3048, -28870, -1035, 15834, -14363.0
3049, -28007, -994, 15846, -13613.0
3050, -26813, -872, 15902, -12469.0
3051, -25758, -766, 15927, -11190.0
3052, -24599, -680, 15945, -9965.5
3053, -23328, -528, 15996, -8597.0
3054, -22467, -474, 15982, -7409.5
3055, -21624, -473, 15893, -6581.5
3056, -19984, -342, 15895, -5317.5
3057, -17982, -192, 16018, -3293.5
3058, -16568, -150, 16117, -1378.5
3059, -15556, -146, 16118, -92.5
3060, -14305, -122, 16094, 1041.5
3061, -12675, -105, 16135, 2511.0
3062, -10866, 37, 16223, 4374.5
3063, -9096, 161, 16320, 6389.5
3064, -9096, 161, 16320, 7385.0
3065, -5815, -85, 16462, 8973.5
3066, -5815, -85, 16462, 10562.0
3067, -2493, -269, 16612, 12206.0
3068, -1070, -376, 16664, 14534.0
3069, 192, -462, 16654, 15801.0
3070, 1746, -490, 16647, 17143.5
3071, 3543, -538, 16709, 18808.5
3072, 5164, -591, 16800, 20543.5
3073, 6530, -642, 16848, 22054.5
3074, 7931, -735, 16874, 23403.0
3075, 7931, -735, 16874, 24070.0
3076, 11225, -758, 16967, 25752.0
3077, 11225, -758, 16967, 27434.0
3078, 13957, -840, 17036, 28793.5
3079, 13957, -840, 17036, 30153.0
3080, 16896, -786, 17044, 31653.5
3081, 16896, -786, 17044, 33154.0
3082, 19394, -757, 17154, 34472.5
3083, 19394, -757, 17154, 35791.0
3084, 22071, -763, 17204, 37151.5
3085, 22071, -763, 17204, 38512.0
3086, 23152, -724, 17268, 39104.0
3087, 24166, -665, 17307, 40252.0
3088, 25375, -581, 17332, 41467.0
3089, 26314, -614, 17342, 42584.0
3090, 26931, -630, 17333, 43338.0
3091, 27860, -517, 17364, 44170.5
3092, 28894, -422, 17432, 45305.5
3093, 29428, -410, 17447, 46184.5
3094, 29900, -365, 17428, 46714.0
3095, 30722, -271, 17460, 47437.0
3096, 31325, -178, 17489, 48273.5
3097, 31607, -54, 17458, 48823.5
3098, 32186, 66, 17440, 49351.5
3099, 32764, 178, 17468, 50051.0
3100, 32764, 332, 17486, 50496.0
3101, 32764, 537, 17480, 50681.5
3102, 32764, 830, 17480, 50927.5
3103, 32764, 1161, 17474, 51236.5
3104, 32764, 1495, 17451, 51554.5
3105, 32764, 1846, 17442, 51881.0
3106, 32764, 2136, 17424, 52188.0
3107, 32764, 2423, 17386, 52448.5
3108, 32764, 2794, 17397, 52764.0
3109, 32764, 3102, 17446, 53133.5
3110, 32764, 3231, 17435, 53371.0
3111, 31953, 3314, 17368, 53032.5
3112, 31338, 3408, 17328, 52354.5
3113, 30578, 3362, 17306, 51660.0
3114, 29406, 3228, 17253, 50566.5
3115, 28535, 3124, 17201, 49373.5
3116, 27878, 2915, 17176, 48414.5
3117, 26663, 2554, 17136, 47161.0
3118, 25274, 2216, 17136, 45489.5
3119, 24248, 1948, 17100, 43961.0
3120, 24248, 1948, 17100, 43296.0
3121, 21706, 1308, 16996, 41653.0
3122, 21706, 1308, 16996, 40010.0
3123, 18956, 782, 16964, 38356.0
3124, 18956, 782, 16964, 36702.0
3125, 16084, 367, 16891, 35022.0
3126, 16084, 367, 16891, 33342.0
3127, 13138, 86, 16830, 31698.0
3128, 13138, 86, 16830, 30054.0
3129, 10114, -54, 16780, 28447.0
3130, 10114, -171, 16666, 26724.5
3131, 8620, -239, 16570, 25780.0
3132, 7242, -330, 16567, 24215.0
3133, 5738, -444, 16588, 22680.5
3134, 2439, -508, 16476, 20144.5
3135, 2439, -508, 16476, 18407.0
3136, -581, -576, 16403, 16826.5
3137, -581, -576, 16403, 15246.0
3138, -3419, -690, 16324, 13730.5
3139, -3419, -690, 16324, 12215.0
3140, -4755, -750, 16242, 11476.0
3141, -6209, -750, 16177, 9977.5
3142, -7683, -738, 16146, 8471.5
3143, -9165, -711, 16094, 6971.5
3144, -10680, -664, 16001, 5437.5
3145, -12137, -688, 15920, 3876.0
3146, -13410, -691, 15906, 2450.0
3147, -14638, -636, 15920, 1225.5
3148, -16019, -694, 15892, -87.5
3149, -17320, -742, 15852, -1515.5
3150, -18498, -714, 15813, -2804.5
3151, -19904, -782, 15750, -4167.5
3152, -21244, -805, 15696, -5644.5
3153, -22202, -765, 15680, -6820.0
3154, -23372, -851, 15676, -7917.0
3155, -24909, -946, 15652, -9375.0
3156, -26115, -984, 15616, -10843.0
3157, -26850, -1024, 15601, -11878.0
3158, -27729, -1088, 15579, -12755.5
3159, -28792, -1187, 15536, -13840.5
3160, -29532, -1204, 15521, -14829.0
3161, -30131, -1169, 15523, -15496.0
3162, -30972, -1218, 15490, -16238.5
3163, -30972, -1218, 15490, -16700.0
3164, -32160, -1276, 15458, -17339.0
3165, -32160, -1276, 15458, -17978.0
3166, -32764, -1348, 15417, -18336.5
3167, -32764, -1305, 15407, -18678.5
3168, -32764, -1346, 15436, -18668.0
3169, -32764, -1371, 15470, -18669.5
3170, -32764, -1362, 15496, -18647.5
3171, -32764, -1363, 15514, -18621.5
3172, -32764, -1326, 15525, -18589.0
3173, -32764, -1310, 15548, -18545.5
3174, -32764, -1310, 15548, -18526.0
3175, -32764, -1246, 15620, -18458.0
3176, -32764, -1246, 15620, -18390.0
3177, -32056, -1225, 15652, -18009.5
3178, -32056, -1225, 15652, -17629.0
3179, -30242, -1073, 15749, -16597.5
3180, -30242, -1073, 15749, -15566.0
3181, -28920, -1055, 15778, -14881.5
3182, -28920, -1055, 15778, -14197.0
3183, -27132, -895, 15854, -13185.0
3184, -27132, -895, 15854, -12173.0
3185, -26013, -784, 15914, -11528.0
3186, -24640, -664, 15993, -10097.0
3187, -23359, -550, 16050, -8585.0
3188, -22622, -442, 16027, -7448.0
3189, -21879, -370, 15925, -6680.5
3190, -20322, -312, 15901, -5528.5
3191, -18275, -175, 16032, -3575.5
3192, -16668, -88, 16168, -1503.0
3193, -15604, -144, 16184, -76.0
3194, -14459, -158, 16133, 976.0
3195, -12886, -134, 16132, 2314.0
3196, -11051, -24, 16212, 4124.5
3197, -9242, 160, 16324, 6189.5
3198, -7624, 104, 16408, 8065.0
3199, -6081, -103, 16471, 9587.5
3200, -4378, -188, 16550, 11135.5
3201, -2658, -256, 16611, 12840.5
3202, -1238, -403, 16603, 14329.5
3203, 15, -500, 16562, 15519.5
3204, 1529, -526, 16586, 16833.0
3205, 3290, -539, 16691, 18515.5
3206, 4932, -551, 16774, 20298.5
3207, 6323, -630, 16779, 21813.5
3208, 7662, -740, 16787, 23090.5
3209, 9228, -769, 16862, 24515.0
3210, 10948, -784, 16963, 26224.0
3211, 12438, -830, 17024, 27879.5
3212, 13678, -880, 17024, 29227.0
3213, 15089, -882, 17002, 30515.5
3214, 16688, -816, 17019, 32050.0
3215, 18050, -770, 17085, 33628.0
3216, 19200, -763, 17136, 34969.0
3217, 20480, -763, 17136, 36213.0
3218, 21792, -676, 17190, 37579.5
3219, 21792, -676, 17190, 38306.0
3220, 24033, -677, 17313, 39487.5
3221, 24033, -677, 17313, 40669.0
3222, 26195, -629, 17345, 41790.0
3223, 26195, -629, 17345, 42911.0
3224, 27702, -510, 17292, 43697.5
3225, 27702, -510, 17292, 44484.0
3226, 29379, -430, 17384, 45408.5
3227, 29379, -430, 17384, 46333.0
3228, 29859, -383, 17372, 46590.5
3229, 30744, -283, 17403, 47356.0
3230, 31399, -180, 17442, 48262.5
3231, 31574, -99, 17414, 48775.0
3232, 32051, -8, 17420, 49176.0
3233, 32764, 378, 17568, 50086.5
3234, 32764, 378, 17568, 50710.0
3235, 32764, 801, 17524, 50899.5
3236, 32764, 801, 17524, 51089.0
3237, 32764, 1460, 17531, 51422.0
3238, 32764, 1460, 17531, 51755.0
3239, 32764, 1808, 17506, 51916.5
3240, 32764, 2138, 17506, 52243.0
3241, 32764, 2446, 17512, 52565.0
3242, 32764, 2766, 17488, 52870.0
3243, 32764, 3050, 17472, 53152.0
3244, 32764, 3224, 17452, 53363.0
3245, 32188, 3336, 17390, 53177.0
3246, 31328, 3374, 17328, 52472.0
3247, 30600, 3285, 17296, 51605.5
3248, 29654, 3174, 17250, 50629.5
3249, 28697, 3076, 17201, 49526.0
3250, 27880, 2897, 17202, 48476.5
3251, 26662, 2574, 17190, 47202.5
3252, 25266, 2214, 17124, 45515.0
3253, 24264, 1958, 17084, 43955.0
3254, 23287, 1679, 17063, 42667.5
3255, 21894, 1346, 17021, 41145.0
3256, 20386, 1069, 16994, 39355.0
3257, 19069, 771, 16964, 37626.5
3258, 17728, 506, 16896, 35967.0
3259, 16226, 357, 16848, 34280.5
3260, 14741, 250, 16846, 32634.0
3261, 13324, 128, 16837, 31063.0
3262, 13324, 128, 16837, 30289.0
3263, 10214, -179, 16684, 28504.0
3264, 10214, -179, 16684, 26719.0
3265, 7404, -335, 16646, 25217.0
3266, 5904, -405, 16604, 22909.0
3267, 4268, -464, 16512, 21209.5
3268, 2742, -502, 16452, 19504.0
3269, 1284, -521, 16433, 17944.0
3270, -263, -533, 16389, 16394.5
3271, -1797, -539, 16295, 14776.0
3272, -3176, -598, 16209, 13197.0
3273, -3176, -598, 16209, 12435.0
3274, -6050, -705, 16156, 10918.0
3275, -6050, -705, 16156, 9401.0
3276, -8896, -565, 16084, 8012.0
3277, -8896, -565, 16084, 6623.0
3278, -11890, -576, 15947, 5052.0
3279, -11890, -576, 15947, 3481.0
3280, -14406, -668, 15904, 2155.5
3281, -14406, -668, 15904, 830.0
3282, -17108, -648, 15885, -520.5
3283, -17108, -648, 15885, -1871.0
3284, -18300, -664, 15874, -2480.5
3285, -19777, -736, 15788, -3907.5
3286, -21196, -792, 15695, -5509.0
3287, -22160, -790, 15681, -6781.0
3288, -23210, -804, 15691, -7796.0
3289, -24626, -918, 15652, -9107.5
3290, -25820, -1065, 15591, -10593.0
3291, -26668, -1127, 15549, -11770.0
3292, -27746, -1166, 15512, -12823.0
3293, -28916, -1218, 15478, -14028.0
3294, -29643, -1213, 15470, -15021.0
3295, -30171, -1239, 15480, -15658.0
3296, -30895, -1306, 15493, -16319.0
3297, -31649, -1347, 15498, -17103.0
3298, -32155, -1375, 15503, -17762.5
3299, -32608, -1375, 15504, -18253.0
3300, -32764, -1364, 15487, -18560.0
3301, -32764, -1361, 15495, -18635.5
3302, -32764, -1373, 15533, -18617.0
3303, -32764, -1389, 15536, -18610.5
3304, -32764, -1374, 15506, -18624.5
3305, -32764, -1350, 15501, -18622.5
3306, -32764, -1334, 15539, -18586.0
3307, -32764, -1316, 15569, -18535.0
3308, -32764, -1337, 15550, -18531.0
3309, -32764, -1351, 15513, -18576.5
3310, -32598, -1296, 15506, -18495.0
3311, -32042, -1234, 15544, -18060.0
3312, -31211, -1174, 15602, -17257.5
3313, -30353, -1152, 15651, -16318.5
3314, -29612, -1140, 15700, -15453.0
3315, -28982, -1061, 15734, -14680.5
3316, -28982, -1061, 15734, -14309.0
3317, -27187, -880, 15765, -13305.5
3318, -27187, -880, 15765, -12302.0
3319, -24726, -701, 15894, -10917.5
3320, -24726, -701, 15894, -9533.0
3321, -22596, -515, 16016, -8314.0
3322, -22596, -515, 16016, -7095.0
3323, -20548, -383, 15909, -6058.5
3324, -20548, -383, 15909, -5022.0
3325, -16960, -106, 16192, -2948.0
3326, -16960, -106, 16192, -874.0
3327, -15814, -59, 16220, -263.5
3328, -14612, -67, 16189, 928.5
3329, -13060, -145, 16213, 2259.0
3330, -11226, -78, 16293, 3998.5
3331, -9435, 81, 16341, 5988.0
3332, -6353, -87, 16442, 8494.5
